"acc","accuracy","average_response_time","avg_rt","background","canvas_backend","coding","compensation","condition","conditon","coordinates","correct","correct_next","correct_response_1","count_exp_sequence","count_exp_sequence1","count_exp_sequence2","count_experiment","count_fixation","count_getting_started","count_instr","count_list1","count_list2","count_logger","count_next","count_pause","count_response_1","count_sound","count_start_exp","count_task","count_thanks","count_training1","count_training2","datetime","description","disable_garbage_collection","experiment_file","experiment_path","font_bold","font_family","font_italic","font_size","font_underline","foreground","form_clicks","fullscreen","height","live_row","live_row_training1","logfile","main_asp","main_num","main_tense","num","opensesame_codename","opensesame_version","repeat_cycle","response","response_next","response_response_1","response_thanks","response_time","response_time_next","response_time_response_1","response_time_thanks","round_decimals","sentence_rus","sound_buf_size","sound_channels","sound_freq","sound_sample_size","start","sub_asp","sub_num","sub_tense","sub_wo","subject_nr","subject_parity","time_exp_sequence","time_exp_sequence1","time_exp_sequence2","time_experiment","time_fixation","time_getting_started","time_instr","time_list1","time_list2","time_logger","time_next","time_pause","time_response_1","time_sound","time_start_exp","time_task","time_thanks","time_training1","time_training2","title","total_correct","total_response_time","total_responses","uniform_coordinates","width","word_count"
"undefined","undefined","361048.5","361048.5","black","legacy","10distr","0","distr","NA","uniform","undefined","undefined","undefined","0","0","0","0","0","NA","0","0","0","0","2","0","0","0","1","0","0","0","0","12/10/19 15:46:47","The main experiment item","yes","tmp110oashp.osexp","C:/Users/lev/Documents","no","mono","no","18","no","white","no","yes","768","0","0","C:/Users/lev/Documents/Results_LJ/L13HO.csv","PRF","SG","FUT","50","Kafkaesque Koffka","3.2.7","0","4","space","4","NA","8992","713105","8992","NA","2","Дима проверит почту, если компьютер включится.","1024","2","48000","-16","experiment","PRF","SG","FUT","sv","13","odd","716648","NA","NA","3175","716650","NA","3180","716286","NA","728751","3180","728671","719677","716650","NA","719677","NA","716286","NA","New experiment","0","722097","2","yes","1024","6"
"undefined","undefined","242183.333333","242183.333333","black","legacy","2li","0","li","NA","uniform","undefined","undefined","undefined","1","0","0","0","1","NA","0","0","0","1","2","1","1","1","1","1","0","0","0","12/10/19 15:46:47","The main experiment item","yes","tmp110oashp.osexp","C:/Users/lev/Documents","no","mono","no","18","no","white","no","yes","768","1","1","C:/Users/lev/Documents/Results_LJ/L13HO.csv","PRF","PL","PST","3","Kafkaesque Koffka","3.2.7","0","5","space","5","NA","4453","713105","4453","NA","2","Гости не сообщили, приедут ли они.","1024","2","48000","-16","experiment","PRF","PL","FUT","vs","13","odd","729203","NA","NA","3175","729205","NA","3180","716286","NA","736124","3180","736044","731588","729205","NA","731588","NA","716286","NA","New experiment","0","726550","3","yes","1024","6"
"undefined","undefined","182924.25","182924.25","black","legacy","12esli","0","esli","NA","uniform","undefined","undefined","undefined","2","0","0","0","2","NA","0","0","0","2","2","2","2","2","1","2","0","0","0","12/10/19 15:46:47","The main experiment item","yes","tmp110oashp.osexp","C:/Users/lev/Documents","no","mono","no","18","no","white","no","yes","768","2","2","C:/Users/lev/Documents/Results_LJ/L13HO.csv","PRF","SG","PST","24","Kafkaesque Koffka","3.2.7","0","4","space","4","NA","5147","713105","5147","NA","2","Нина спросила, если дети поели.","1024","2","48000","-16","experiment","PRF","PL","PST","sv","13","odd","736454","NA","NA","3175","736456","NA","3180","716286","NA","743898","3180","743818","738668","736456","NA","738668","NA","716286","NA","New experiment","0","731697","4","yes","1024","5"
"undefined","undefined","246966.5","246966.5","black","legacy","8li","0","li","NA","uniform","undefined","undefined","undefined","3","0","0","0","3","NA","0","0","0","3","2","3","3","3","1","3","0","0","0","12/10/19 15:46:47","The main experiment item","yes","tmp110oashp.osexp","C:/Users/lev/Documents","no","mono","no","18","no","white","no","yes","768","0","2","C:/Users/lev/Documents/Results_LJ/L13HO.csv","PRF","SG","PST","15","Kafkaesque Koffka","3.2.7","0","5","space","5","NA","3890","746212","3890","NA","2","Миша уточнил, будет ли на обед суп.","1024","2","48000","-16","experiment","IMP","SG","FUT","vos","13","odd","749918","749393","NA","3175","749921","NA","3180","716286","NA","756331","3180","756251","752357","749921","743983","752357","NA","716286","NA","New experiment","0","1481799","6","yes","1024","7"
"undefined","undefined","212309.571429","212309.571429","black","legacy","1li","0","li","NA","uniform","undefined","undefined","undefined","4","0","0","0","4","NA","0","0","0","4","2","4","4","4","1","4","0","0","0","12/10/19 15:46:47","The main experiment item","yes","tmp110oashp.osexp","C:/Users/lev/Documents","no","mono","no","18","no","white","no","yes","768","1","2","C:/Users/lev/Documents/Results_LJ/L13HO.csv","IMP","SG","PST","1","Kafkaesque Koffka","3.2.7","0","5","space","5","NA","4368","746212","4368","NA","2","Саша не знала, придут ли дети домой.","1024","2","48000","-16","experiment","PRF","PL","FUT","vso","13","odd","756863","749393","NA","3175","756865","NA","3180","716286","NA","763709","3180","763629","759258","756865","743983","759258","NA","716286","NA","New experiment","0","1486167","7","yes","1024","7"
"undefined","undefined","186370.25","186370.25","black","legacy","18esli","0","esli","NA","uniform","undefined","undefined","undefined","5","0","0","0","5","NA","0","0","0","5","2","5","5","5","1","5","0","0","0","12/10/19 15:46:47","The main experiment item","yes","tmp110oashp.osexp","C:/Users/lev/Documents","no","mono","no","18","no","white","no","yes","768","2","2","C:/Users/lev/Documents/Results_LJ/L13HO.csv","PRF","PL","PST","36","Kafkaesque Koffka","3.2.7","0","2","space","2","NA","4795","746212","4795","NA","2","Хозяева уточнили, если Маша выключила плиту.","1024","2","48000","-16","experiment","PRF","SG","PST","svo","13","odd","764102","749393","NA","3175","764104","NA","3180","716286","NA","772025","3180","771945","767148","764104","743983","767148","NA","716286","NA","New experiment","0","1490962","8","yes","1024","6"
"undefined","undefined","166038.333333","166038.333333","black","legacy","3distr","0","distr","NA","uniform","undefined","undefined","undefined","6","0","0","0","6","NA","0","0","0","6","2","6","6","6","1","6","0","0","0","12/10/19 15:46:47","The main experiment item","yes","tmp110oashp.osexp","C:/Users/lev/Documents","no","mono","no","18","no","white","no","yes","768","3","2","C:/Users/lev/Documents/Results_LJ/L13HO.csv","PRF","SG","FUT","43","Kafkaesque Koffka","3.2.7","0","2","space","2","NA","3383","746212","3383","NA","2","Таня посмотрит новости, если заработает телевизор.","1024","2","48000","-16","experiment","PRF","SG","FUT","vs","13","odd","772444","749393","NA","3175","772446","NA","3180","716286","NA","779103","3180","779023","775637","772446","743983","775637","NA","716286","NA","New experiment","0","1494345","9","yes","1024","6"
"undefined","undefined","149786.2","149786.2","black","legacy","1distr","0","distr","NA","uniform","undefined","undefined","undefined","7","0","0","0","7","NA","0","0","0","7","2","7","7","7","1","7","0","0","0","12/10/19 15:46:47","The main experiment item","yes","tmp110oashp.osexp","C:/Users/lev/Documents","no","mono","no","18","no","white","no","yes","768","4","2","C:/Users/lev/Documents/Results_LJ/L13HO.csv","PRF","SG","FUT","41","Kafkaesque Koffka","3.2.7","0","4","space","4","NA","3517","746212","3517","NA","2","Папа придёт поздно, если вечером будет снег.","1024","2","48000","-16","experiment","IMP","PL","FUT","ovs","13","odd","779511","749393","NA","3175","779513","NA","3180","716286","NA","785845","3180","785765","782246","779513","743983","782246","NA","716286","NA","New experiment","0","1497862","10","yes","1024","7"
"undefined","undefined","136552.272727","136552.272727","black","legacy","15esli","0","esli","NA","uniform","undefined","undefined","undefined","8","0","0","0","8","NA","0","0","0","8","2","8","8","8","1","8","0","0","0","12/10/19 15:46:47","The main experiment item","yes","tmp110oashp.osexp","C:/Users/lev/Documents","no","mono","no","18","no","white","no","yes","768","5","2","C:/Users/lev/Documents/Results_LJ/L13HO.csv","PRF","SG","PST","30","Kafkaesque Koffka","3.2.7","0","3","space","3","NA","4213","746212","4213","NA","2","Учитель поинтересовался, если ученики выполнили задание.","1024","2","48000","-16","experiment","PRF","PL","PST","svo","13","odd","786263","749393","NA","3175","786265","NA","3180","716286","NA","794124","3180","794044","789828","786265","743983","789827","NA","716286","NA","New experiment","0","1502075","11","yes","1024","6"
"undefined","undefined","125491.333333","125491.333333","black","legacy","3li","0","li","NA","uniform","undefined","undefined","undefined","9","0","0","0","9","NA","0","0","0","9","2","9","9","9","1","9","0","0","0","12/10/19 15:46:47","The main experiment item","yes","tmp110oashp.osexp","C:/Users/lev/Documents","no","mono","no","18","no","white","no","yes","768","6","2","C:/Users/lev/Documents/Results_LJ/L13HO.csv","IMP","PL","PST","5","Kafkaesque Koffka","3.2.7","0","5","space","5","NA","3821","746212","3821","NA","2","Туристы сомневались, будет ли вечером дождь.","1024","2","48000","-16","experiment","IMP","SG","FUT","vs","13","odd","794522","749393","NA","3175","794524","NA","3180","716286","NA","801170","3180","801090","797267","794524","743983","797266","NA","716286","NA","New experiment","0","1505896","12","yes","1024","6"
"undefined","undefined","116203.153846","116203.153846","black","legacy","6distr","0","distr","NA","uniform","undefined","undefined","undefined","10","0","0","0","10","NA","0","0","0","10","2","10","10","10","1","10","0","0","0","12/10/19 15:46:47","The main experiment item","yes","tmp110oashp.osexp","C:/Users/lev/Documents","no","mono","no","18","no","white","no","yes","768","7","2","C:/Users/lev/Documents/Results_LJ/L13HO.csv","PRF","SG","FUT","46","Kafkaesque Koffka","3.2.7","0","5","space","5","NA","4745","746212","4745","NA","2","Женя пойдёт гулять, если его позовут.","1024","2","48000","-16","experiment","PRF","SG","FUT","ov","13","odd","801510","749393","NA","3175","801512","NA","3180","716286","NA","808834","3180","808753","804006","801512","743983","804006","NA","716286","NA","New experiment","0","1510641","13","yes","1024","6"
"undefined","undefined","108088","108088","black","legacy","6esli","0","esli","NA","uniform","undefined","undefined","undefined","11","0","0","0","11","NA","0","0","0","11","2","11","11","11","1","11","0","0","0","12/10/19 15:46:47","The main experiment item","yes","tmp110oashp.osexp","C:/Users/lev/Documents","no","mono","no","18","no","white","no","yes","768","8","2","C:/Users/lev/Documents/Results_LJ/L13HO.csv","PRF","SG","PST","12","Kafkaesque Koffka","3.2.7","0","3","space","3","NA","2591","746212","2591","NA","2","Лена задумалась, если ей понравились подарки.","1024","2","48000","-16","experiment","PRF","PL","PST","ovs","13","odd","809227","749393","NA","3175","809229","NA","3180","716286","NA","814830","3180","814750","812157","809229","743983","812156","NA","716286","NA","New experiment","0","1513232","14","yes","1024","6"
"undefined","undefined","101192.2","101192.2","black","legacy","20li","0","li","NA","uniform","undefined","undefined","undefined","12","0","0","0","12","NA","0","0","0","12","2","12","12","12","1","12","0","0","0","12/10/19 15:46:47","The main experiment item","yes","tmp110oashp.osexp","C:/Users/lev/Documents","no","mono","no","18","no","white","no","yes","768","9","2","C:/Users/lev/Documents/Results_LJ/L13HO.csv","PRF","SG","PST","39","Kafkaesque Koffka","3.2.7","0","5","space","5","NA","4651","746212","4651","NA","2","Коля задумался, остались ли в доме конфеты","1024","2","48000","-16","experiment","PRF","PL","PST","vos","13","odd","815225","749393","NA","3175","815227","NA","3180","716286","NA","822950","3180","822870","818216","815227","743983","818216","NA","716286","NA","New experiment","0","1517883","15","yes","1024","7"
"undefined","undefined","95193.75","95193.75","black","legacy","5li","0","li","NA","uniform","undefined","undefined","undefined","13","0","0","0","13","NA","0","0","0","13","2","13","13","13","1","13","0","0","0","12/10/19 15:46:47","The main experiment item","yes","tmp110oashp.osexp","C:/Users/lev/Documents","no","mono","no","18","no","white","no","yes","768","10","2","C:/Users/lev/Documents/Results_LJ/L13HO.csv","PRF","PL","PST","9","Kafkaesque Koffka","3.2.7","0","5","space","5","NA","5217","746212","5217","NA","2","Ученики забыли, будут ли завтра занятия.","1024","2","48000","-16","experiment","IMP","PL","FUT","vs","13","odd","823310","749393","NA","3175","823312","NA","3180","716286","NA","831387","3180","831307","826087","823312","743983","826086","NA","716286","NA","New experiment","0","1523100","16","yes","1024","6"
"undefined","undefined","89702.9411765","89702.9411765","black","legacy","11esli","0","esli","NA","uniform","undefined","undefined","undefined","14","0","0","0","14","NA","0","0","0","14","2","14","14","14","1","14","0","0","0","12/10/19 15:46:47","The main experiment item","yes","tmp110oashp.osexp","C:/Users/lev/Documents","no","mono","no","18","no","white","no","yes","768","11","2","C:/Users/lev/Documents/Results_LJ/L13HO.csv","IMP","PL","PST","22","Kafkaesque Koffka","3.2.7","0","2","space","2","NA","1850","746212","1850","NA","2","Внуки узнавали, если летом приедет бабушка. ","1024","2","48000","-16","experiment","PRF","SG","FUT","ovs","13","odd","831785","749393","NA","3175","831787","NA","3180","716286","NA","836710","3180","836630","834778","831787","743983","834777","NA","716286","NA","New experiment","0","1524950","17","yes","1024","6"
"undefined","undefined","84761.2777778","84761.2777778","black","legacy","9li","0","li","NA","uniform","undefined","undefined","undefined","15","0","0","0","15","NA","0","0","0","15","2","15","15","15","1","15","0","0","0","12/10/19 15:46:47","The main experiment item","yes","tmp110oashp.osexp","C:/Users/lev/Documents","no","mono","no","18","no","white","no","yes","768","12","2","C:/Users/lev/Documents/Results_LJ/L13HO.csv","PRF","SG","PST","17","Kafkaesque Koffka","3.2.7","0","5","space","5","NA","753","746212","753","NA","2","Катя проверила, не забыла ли она перчатки.","1024","2","48000","-16","experiment","PRF","SG","PST","vso","13","odd","837083","749393","NA","3175","837085","NA","3180","716286","NA","840581","3180","840501","839746","837085","743983","839746","NA","716286","NA","New experiment","0","1525703","18","yes","1024","7"
"undefined","undefined","80437.3684211","80437.3684211","black","legacy","19esli","0","esli","NA","uniform","undefined","undefined","undefined","16","0","0","0","16","NA","0","0","0","16","2","16","16","16","1","16","0","0","0","12/10/19 15:46:47","The main experiment item","yes","tmp110oashp.osexp","C:/Users/lev/Documents","no","mono","no","18","no","white","no","yes","768","13","2","C:/Users/lev/Documents/Results_LJ/L13HO.csv","PRF","PL","PST","38","Kafkaesque Koffka","3.2.7","0","2","space","2","NA","2607","746212","2607","NA","2","Соседи не сказали, если они полили цветы.","1024","2","48000","-16","experiment","PRF","PL","PST","svo","13","odd","840965","749393","NA","3175","840967","NA","3180","716286","NA","846446","3180","846366","843757","840967","743983","843756","NA","716286","NA","New experiment","0","1528310","19","yes","1024","7"
"undefined","undefined","76452.5","76452.5","black","legacy","8distr","0","distr","NA","uniform","undefined","undefined","undefined","17","0","0","0","17","NA","0","0","0","17","2","17","17","17","1","17","0","0","0","12/10/19 15:46:47","The main experiment item","yes","tmp110oashp.osexp","C:/Users/lev/Documents","no","mono","no","18","no","white","no","yes","768","14","2","C:/Users/lev/Documents/Results_LJ/L13HO.csv","PRF","SG","FUT","48","Kafkaesque Koffka","3.2.7","0","5","space","5","NA","740","746212","740","NA","2","Мама съест пирожное, если оно будет вкусным.","1024","2","48000","-16","experiment","IMP","SG","FUT","sv","13","odd","846855","749393","NA","3175","846857","NA","3180","716286","NA","850679","3180","850599","849856","846857","743983","849855","NA","716286","NA","New experiment","0","1529050","20","yes","1024","7"
"undefined","undefined","72831.3333333","72831.3333333","black","legacy","4distr","0","distr","NA","uniform","undefined","undefined","undefined","18","0","0","0","18","NA","0","0","0","18","2","18","18","18","1","18","0","0","0","12/10/19 15:46:47","The main experiment item","yes","tmp110oashp.osexp","C:/Users/lev/Documents","no","mono","no","18","no","white","no","yes","768","15","2","C:/Users/lev/Documents/Results_LJ/L13HO.csv","PRF","SG","FUT","44","Kafkaesque Koffka","3.2.7","0","5","space","5","NA","408","746212","408","NA","2","Витя помоет посуду, если доделает уроки.","1024","2","48000","-16","experiment","PRF","SG","FUT","(s)vo","13","odd","851071","749393","NA","3175","851073","NA","3180","716286","NA","854506","3180","854426","854016","851073","743983","854016","NA","716286","NA","New experiment","0","1529458","21","yes","1024","6"
"undefined","undefined","69535.2272727","69535.2272727","black","legacy","10li","0","li","NA","uniform","undefined","undefined","undefined","19","0","0","0","19","NA","0","0","0","19","2","19","19","19","1","19","0","0","0","12/10/19 15:46:47","The main experiment item","yes","tmp110oashp.osexp","C:/Users/lev/Documents","no","mono","no","18","no","white","no","yes","768","16","2","C:/Users/lev/Documents/Results_LJ/L13HO.csv","IMP","PL","PST","19","Kafkaesque Koffka","3.2.7","0","5","space","5","NA","317","746212","317","NA","2","Они интересовались, написали ли журналисты про выборы.","1024","2","48000","-16","experiment","PRF","PL","PST","vso","13","odd","854921","749393","NA","3175","854923","NA","3180","716286","NA","858576","3180","858496","858176","854923","743983","858175","NA","716286","NA","New experiment","0","1529775","22","yes","1024","7"
"undefined","undefined","66660.6956522","66660.6956522","black","legacy","9distr","0","distr","NA","uniform","undefined","undefined","undefined","20","0","0","0","20","NA","0","0","0","20","2","20","20","20","1","20","0","0","0","12/10/19 15:46:47","The main experiment item","yes","tmp110oashp.osexp","C:/Users/lev/Documents","no","mono","no","18","no","white","no","yes","768","17","2","C:/Users/lev/Documents/Results_LJ/L13HO.csv","PRF","SG","FUT","49","Kafkaesque Koffka","3.2.7","0","3","space","3","NA","3421","746212","3421","NA","2","Маша позвонит другу, если он будет дома.","1024","2","48000","-16","experiment","IMP","SG","FUT","svo","13","odd","858956","749393","NA","3175","858958","NA","3180","716286","NA","865260","3180","865180","861756","858958","743983","861755","NA","716286","NA","New experiment","0","1533196","23","yes","1024","7"
"undefined","undefined","63938.75","63938.75","black","legacy","13esli","0","esli","NA","uniform","undefined","undefined","undefined","21","0","0","0","21","NA","0","0","0","21","2","21","21","21","1","21","0","0","0","12/10/19 15:46:47","The main experiment item","yes","tmp110oashp.osexp","C:/Users/lev/Documents","no","mono","no","18","no","white","no","yes","768","18","2","C:/Users/lev/Documents/Results_LJ/L13HO.csv","PRF","SG","PST","26","Kafkaesque Koffka","3.2.7","0","3","space","3","NA","1334","746212","1334","NA","2","Витя забыл, если во вторник будет игра.","1024","2","48000","-16","experiment","IMP","SG","FUT","ovs","13","odd","865624","749393","NA","3175","865626","NA","3180","716286","NA","869592","3180","869512","868176","865626","743983","868175","NA","716286","NA","New experiment","0","1534530","24","yes","1024","7"
"undefined","undefined","61401.72","61401.72","black","legacy","7li","0","li","NA","uniform","undefined","undefined","undefined","22","0","0","0","22","NA","0","0","0","22","2","22","22","22","1","22","0","0","0","12/10/19 15:46:47","The main experiment item","yes","tmp110oashp.osexp","C:/Users/lev/Documents","no","mono","no","18","no","white","no","yes","768","19","2","C:/Users/lev/Documents/Results_LJ/L13HO.csv","PRF","PL","PST","13","Kafkaesque Koffka","3.2.7","0","5","space","5","NA","513","746212","513","NA","2","Братья не сказали, покормили ли они собаку.","1024","2","48000","-16","experiment","PRF","PL","PST","vso","13","odd","870000","749393","NA","3175","870002","NA","3180","716286","NA","873531","3180","873451","872936","870002","743983","872935","NA","716286","NA","New experiment","0","1535043","25","yes","1024","7"
"undefined","undefined","59057.8846154","59057.8846154","black","legacy","7distr","0","distr","NA","uniform","undefined","undefined","undefined","23","0","0","0","23","NA","0","0","0","23","2","23","23","23","1","23","0","0","0","12/10/19 15:46:47","The main experiment item","yes","tmp110oashp.osexp","C:/Users/lev/Documents","no","mono","no","18","no","white","no","yes","768","20","2","C:/Users/lev/Documents/Results_LJ/L13HO.csv","PRF","SG","FUT","47","Kafkaesque Koffka","3.2.7","0","5","space","5","NA","462","746212","462","NA","2","Рита останется дома, если сильно заболеет.","1024","2","48000","-16","experiment","PRF","SG","FUT","(s)ov","13","odd","873922","749393","NA","3175","873924","NA","3180","716286","NA","877431","3180","877351","876886","873924","743983","876885","NA","716286","NA","New experiment","0","1535505","26","yes","1024","6"
"undefined","undefined","56884.5555556","56884.5555556","black","legacy","16esli","0","esli","NA","uniform","undefined","undefined","undefined","24","0","0","0","24","NA","0","0","0","24","2","24","24","24","1","24","0","0","0","12/10/19 15:46:47","The main experiment item","yes","tmp110oashp.osexp","C:/Users/lev/Documents","no","mono","no","18","no","white","no","yes","768","21","2","C:/Users/lev/Documents/Results_LJ/L13HO.csv","IMP","PL","PST","32","Kafkaesque Koffka","3.2.7","0","2","space","2","NA","378","746212","378","NA","2","Родители сомневалась, если Даня помыл посуду.","1024","2","48000","-16","experiment","PRF","SG","PST","svo","13","odd","877812","749393","NA","3175","877814","NA","3180","716286","NA","881266","3180","881186","880806","877814","743983","880805","NA","716286","NA","New experiment","0","1535883","27","yes","1024","6"
"undefined","undefined","54989.3571429","54989.3571429","black","legacy","5distr","0","distr","NA","uniform","undefined","undefined","undefined","25","0","0","0","25","NA","0","0","0","25","2","25","25","25","1","25","0","0","0","12/10/19 15:46:47","The main experiment item","yes","tmp110oashp.osexp","C:/Users/lev/Documents","no","mono","no","18","no","white","no","yes","768","22","2","C:/Users/lev/Documents/Results_LJ/L13HO.csv","PRF","SG","FUT","45","Kafkaesque Koffka","3.2.7","0","3","space","3","NA","3819","746212","3819","NA","2","Саша доест яблоко, если оно будет сладким.","1024","2","48000","-16","experiment","IMP","SG","FUT","sv","13","odd","881670","749393","NA","3175","881672","NA","3180","716286","NA","888550","3180","888470","884646","881672","743983","884645","NA","716286","NA","New experiment","0","1539702","28","yes","1024","7"
"undefined","undefined","53156","53156","black","legacy","14esli","0","esli","NA","uniform","undefined","undefined","undefined","26","0","0","0","26","NA","0","0","0","26","2","26","26","26","1","26","0","0","0","12/10/19 15:46:47","The main experiment item","yes","tmp110oashp.osexp","C:/Users/lev/Documents","no","mono","no","18","no","white","no","yes","768","23","2","C:/Users/lev/Documents/Results_LJ/L13HO.csv","IMP","PL","PST","28","Kafkaesque Koffka","3.2.7","0","2","space","2","NA","1822","746212","1822","NA","2","Мальчики не знали, если друзья принесли торт.","1024","2","48000","-16","experiment","PRF","PL","PST","svo","13","odd","888932","749393","NA","3175","888934","NA","3180","716286","NA","893721","3180","893641","891816","888934","743983","891815","NA","716286","NA","New experiment","0","1541524","29","yes","1024","7"
"undefined","undefined","51420.8","51420.8","black","legacy","2distr","0","distr","NA","uniform","undefined","undefined","undefined","27","0","0","0","27","NA","0","0","0","27","2","27","27","27","1","27","0","0","0","12/10/19 15:46:47","The main experiment item","yes","tmp110oashp.osexp","C:/Users/lev/Documents","no","mono","no","18","no","white","no","yes","768","24","2","C:/Users/lev/Documents/Results_LJ/L13HO.csv","PRF","SG","FUT","42","Kafkaesque Koffka","3.2.7","0","4","space","4","NA","1100","746212","1100","NA","2","Вася купит картошку, если придёт зарплата.","1024","2","48000","-16","experiment","PRF","SG","FUT","vs","13","odd","894103","749393","NA","3175","894105","NA","3180","716286","NA","898159","3180","898079","896976","894105","743983","896975","NA","716286","NA","New experiment","0","1542624","30","yes","1024","6"
"undefined","undefined","49834.4193548","49834.4193548","black","legacy","4li","0","li","NA","uniform","undefined","undefined","undefined","28","0","0","0","28","NA","0","0","0","28","2","28","28","28","1","28","0","0","0","12/10/19 15:46:47","The main experiment item","yes","tmp110oashp.osexp","C:/Users/lev/Documents","no","mono","no","18","no","white","no","yes","768","25","2","C:/Users/lev/Documents/Results_LJ/L13HO.csv","PRF","SG","PST","7","Kafkaesque Koffka","3.2.7","0","5","space","5","NA","2243","746212","2243","NA","2","Петя спросил, смотрел ли Вася кино.","1024","2","48000","-16","experiment","IMP","SG","PST","vso","13","odd","898514","749393","NA","3175","898516","NA","3180","716286","NA","903164","3180","903084","900838","898516","743983","900838","NA","716286","NA","New experiment","0","1544867","31","yes","1024","6"
"undefined","undefined","48334.71875","48334.71875","black","legacy","17esli","0","esli","NA","uniform","undefined","undefined","undefined","29","0","0","0","29","NA","0","0","0","29","2","29","29","29","1","29","0","0","0","12/10/19 15:46:47","The main experiment item","yes","tmp110oashp.osexp","C:/Users/lev/Documents","no","mono","no","18","no","white","no","yes","768","26","2","C:/Users/lev/Documents/Results_LJ/L13HO.csv","PRF","SG","PST","34","Kafkaesque Koffka","3.2.7","0","1","space","1","NA","1844","746212","1844","NA","2","Вася не решил, если он купит газету.","1024","2","48000","-16","experiment","PRF","SG","FUT","svo","13","odd","903522","749393","NA","3175","903524","NA","3180","716286","NA","908062","3180","907982","906136","903524","743983","906136","NA","716286","NA","New experiment","0","1546711","32","yes","1024","7"
