"acc","accuracy","average_response_time","avg_rt","background","canvas_backend","coding","compensation","condition","conditon","coordinates","correct","correct_next","correct_response_1","count_exp_sequence","count_exp_sequence1","count_exp_sequence2","count_experiment","count_fixation","count_getting_started","count_instr","count_list1","count_list2","count_logger","count_next","count_pause","count_response_1","count_sound","count_start_exp","count_task","count_thanks","count_training1","count_training2","datetime","description","disable_garbage_collection","experiment_file","experiment_path","font_bold","font_family","font_italic","font_size","font_underline","foreground","form_clicks","fullscreen","height","live_row","live_row_training2","logfile","main_asp","main_num","main_tense","num","opensesame_codename","opensesame_version","repeat_cycle","response","response_next","response_response_1","response_thanks","response_time","response_time_next","response_time_response_1","response_time_thanks","round_decimals","sentence_rus","sound_buf_size","sound_channels","sound_freq","sound_sample_size","start","sub_asp","sub_num","sub_tense","sub_wo","subject_nr","subject_parity","time_exp_sequence","time_exp_sequence1","time_exp_sequence2","time_experiment","time_fixation","time_getting_started","time_instr","time_list1","time_list2","time_logger","time_next","time_pause","time_response_1","time_sound","time_start_exp","time_task","time_thanks","time_training1","time_training2","title","total_correct","total_response_time","total_responses","uniform_coordinates","width","word_count"
"undefined","undefined","352884.5","352884.5","black","legacy","10distr","0","distr","NA","uniform","undefined","undefined","undefined","0","0","0","0","0","NA","0","0","0","0","2","0","0","0","1","0","0","0","0","12/10/19 17:41:41","The main experiment item","yes","tmp110oashp.osexp","C:/Users/lev/Documents","no","mono","no","18","no","white","no","yes","768","0","0","C:/Users/lev/Documents/Results_LJ/L16HO.csv","PRF","SG","FUT","50","Kafkaesque Koffka","3.2.7","0","3","space","3","NA","22072","683697","22072","NA","2","Дима проверит почту, если компьютер включится.","1024","2","48000","-16","experiment","PRF","SG","FUT","sv","16","even","687458","NA","NA","3331","687460","NA","3336","NA","687035","712629","3336","712549","690475","687460","NA","690474","NA","NA","687035","New experiment","0","705769","2","yes","1024","6"
"undefined","undefined","238848.666667","238848.666667","black","legacy","2esli","0","esli","NA","uniform","undefined","undefined","undefined","1","0","0","0","1","NA","0","0","0","1","2","1","1","1","1","1","0","0","0","12/10/19 17:41:41","The main experiment item","yes","tmp110oashp.osexp","C:/Users/lev/Documents","no","mono","no","18","no","white","no","yes","768","1","1","C:/Users/lev/Documents/Results_LJ/L16HO.csv","PRF","PL","PST","4","Kafkaesque Koffka","3.2.7","0","3","space","3","NA","10777","683697","10777","NA","2","Гости не сообщили, если они приедут.","1024","2","48000","-16","experiment","PRF","PL","FUT","so","16","even","713029","NA","NA","3331","713031","NA","3336","NA","687035","726503","3336","726423","715644","713031","NA","715644","NA","NA","687035","New experiment","0","716546","3","yes","1024","6"
"undefined","undefined","180126","180126","black","legacy","12li","0","li","NA","uniform","undefined","undefined","undefined","2","0","0","0","2","NA","0","0","0","2","2","2","2","2","1","2","0","0","0","12/10/19 17:41:41","The main experiment item","yes","tmp110oashp.osexp","C:/Users/lev/Documents","no","mono","no","18","no","white","no","yes","768","2","2","C:/Users/lev/Documents/Results_LJ/L16HO.csv","PRF","SG","PST","23","Kafkaesque Koffka","3.2.7","0","5","space","5","NA","3958","683697","3958","NA","2","Нина спросила, поели ли дети.","1024","2","48000","-16","experiment","PRF","PL","PST","vos","16","even","726830","NA","NA","3331","726832","NA","3336","NA","687035","733065","3336","732985","729025","726832","NA","729024","NA","NA","687035","New experiment","0","720504","4","yes","1024","5"
"undefined","undefined","245714.833333","245714.833333","black","legacy","8esli","0","li","esli","uniform","undefined","undefined","undefined","3","0","0","0","3","NA","0","0","0","3","2","3","3","3","1","3","0","0","0","12/10/19 17:41:41","The main experiment item","yes","tmp110oashp.osexp","C:/Users/lev/Documents","no","mono","no","18","no","white","no","yes","768","0","2","C:/Users/lev/Documents/Results_LJ/L16HO.csv","PRF","SG","PST","16","Kafkaesque Koffka","3.2.7","0","3","space","3","NA","14302","739483","14302","NA","2","Миша уточнил, если на обед будет суп.","1024","2","48000","-16","experiment","IMP","SG","FUT","ovs","16","even","743102","NA","742819","3331","743104","NA","3336","NA","687035","760069","3336","759989","745685","743104","733110","745685","NA","NA","687035","New experiment","0","1474289","6","yes","1024","7"
"undefined","undefined","211792.571429","211792.571429","black","legacy","1esli","0","li","esli","uniform","undefined","undefined","undefined","4","0","0","0","4","NA","0","0","0","4","2","4","4","4","1","4","0","0","0","12/10/19 17:41:41","The main experiment item","yes","tmp110oashp.osexp","C:/Users/lev/Documents","no","mono","no","18","no","white","no","yes","768","1","2","C:/Users/lev/Documents/Results_LJ/L16HO.csv","IMP","SG","PST","2","Kafkaesque Koffka","3.2.7","0","3","space","3","NA","8259","739483","8259","NA","2","Саша не знала, если дети придут домой.","1024","2","48000","-16","experiment","PRF","PL","FUT","svo","16","even","760431","NA","742819","3331","760433","NA","3336","NA","687035","771536","3336","771456","763195","760433","733110","763194","NA","NA","687035","New experiment","0","1482548","7","yes","1024","7"
"undefined","undefined","186430.25","186430.25","black","legacy","18li","0","li","li","uniform","undefined","undefined","undefined","5","0","0","0","5","NA","0","0","0","5","2","5","5","5","1","5","0","0","0","12/10/19 17:41:41","The main experiment item","yes","tmp110oashp.osexp","C:/Users/lev/Documents","no","mono","no","18","no","white","no","yes","768","2","2","C:/Users/lev/Documents/Results_LJ/L16HO.csv","PRF","PL","PST","35","Kafkaesque Koffka","3.2.7","0","5","space","5","NA","8894","739483","8894","NA","2","Хозяева уточнили, выключила ли Маша плиту.","1024","2","48000","-16","experiment","PRF","SG","PST","vso","16","even","771903","NA","742819","3331","771905","NA","3336","NA","687035","783932","3336","783852","774955","771905","733110","774955","NA","NA","687035","New experiment","0","1491442","8","yes","1024","6"
"undefined","undefined","166409.888889","166409.888889","black","legacy","3distr","0","li","distr","uniform","undefined","undefined","undefined","6","0","0","0","6","NA","0","0","0","6","2","6","6","6","1","6","0","0","0","12/10/19 17:41:41","The main experiment item","yes","tmp110oashp.osexp","C:/Users/lev/Documents","no","mono","no","18","no","white","no","yes","768","3","2","C:/Users/lev/Documents/Results_LJ/L16HO.csv","PRF","SG","FUT","43","Kafkaesque Koffka","3.2.7","0","5","space","5","NA","6247","739483","6247","NA","2","Таня посмотрит новости, если заработает телевизор.","1024","2","48000","-16","experiment","PRF","SG","FUT","vs","16","even","784324","NA","742819","3331","784326","NA","3336","NA","687035","793844","3336","793764","787515","784326","733110","787514","NA","NA","687035","New experiment","0","1497689","9","yes","1024","6"
"undefined","undefined","150974.2","150974.2","black","legacy","1distr","0","li","distr","uniform","undefined","undefined","undefined","7","0","0","0","7","NA","0","0","0","7","2","7","7","7","1","7","0","0","0","12/10/19 17:41:41","The main experiment item","yes","tmp110oashp.osexp","C:/Users/lev/Documents","no","mono","no","18","no","white","no","yes","768","4","2","C:/Users/lev/Documents/Results_LJ/L16HO.csv","PRF","SG","FUT","41","Kafkaesque Koffka","3.2.7","0","4","space","4","NA","12053","739483","12053","NA","2","Папа придёт поздно, если вечером будет снег.","1024","2","48000","-16","experiment","IMP","PL","FUT","ovs","16","even","794213","NA","742819","3331","794215","NA","3336","NA","687035","809100","3336","809020","796965","794215","733110","796964","NA","NA","687035","New experiment","0","1509742","10","yes","1024","7"
"undefined","undefined","138727.272727","138727.272727","black","legacy","15li","0","li","li","uniform","undefined","undefined","undefined","8","0","0","0","8","NA","0","0","0","8","2","8","8","8","1","8","0","0","0","12/10/19 17:41:41","The main experiment item","yes","tmp110oashp.osexp","C:/Users/lev/Documents","no","mono","no","18","no","white","no","yes","768","5","2","C:/Users/lev/Documents/Results_LJ/L16HO.csv","PRF","SG","PST","29","Kafkaesque Koffka","3.2.7","0","3","space","3","NA","16258","739483","16258","NA","2","Учитель поинтересовался, выполнили ли ученики задание.","1024","2","48000","-16","experiment","PRF","PL","PST","vso","16","even","809529","NA","742819","3331","809531","NA","3336","NA","687035","829544","3336","829464","813203","809531","733110","813203","NA","NA","687035","New experiment","0","1526000","11","yes","1024","6"
"undefined","undefined","128109.916667","128109.916667","black","legacy","3esli","0","li","esli","uniform","undefined","undefined","undefined","9","0","0","0","9","NA","0","0","0","9","2","9","9","9","1","9","0","0","0","12/10/19 17:41:41","The main experiment item","yes","tmp110oashp.osexp","C:/Users/lev/Documents","no","mono","no","18","no","white","no","yes","768","6","2","C:/Users/lev/Documents/Results_LJ/L16HO.csv","IMP","PL","PST","6","Kafkaesque Koffka","3.2.7","0","1","space","1","NA","11319","739483","11319","NA","2","Туристы сомневались, если вечером будет дождь.","1024","2","48000","-16","experiment","IMP","SG","FUT","vs","16","even","829934","NA","742819","3331","829936","NA","3336","NA","687035","844277","3336","844197","832875","829936","733110","832874","NA","NA","687035","New experiment","0","1537319","12","yes","1024","6"
"undefined","undefined","118752.615385","118752.615385","black","legacy","6distr","0","li","distr","uniform","undefined","undefined","undefined","10","0","0","0","10","NA","0","0","0","10","2","10","10","10","1","10","0","0","0","12/10/19 17:41:41","The main experiment item","yes","tmp110oashp.osexp","C:/Users/lev/Documents","no","mono","no","18","no","white","no","yes","768","7","2","C:/Users/lev/Documents/Results_LJ/L16HO.csv","PRF","SG","FUT","46","Kafkaesque Koffka","3.2.7","0","3","space","3","NA","6465","739483","6465","NA","2","Женя пойдёт гулять, если его позовут.","1024","2","48000","-16","experiment","PRF","SG","FUT","ov","16","even","844624","NA","742819","3331","844626","NA","3336","NA","687035","853691","3336","853610","847143","844627","733110","847142","NA","NA","687035","New experiment","0","1543784","13","yes","1024","6"
"undefined","undefined","110812","110812","black","legacy","6li","0","li","li","uniform","undefined","undefined","undefined","11","0","0","0","11","NA","0","0","0","11","2","11","11","11","1","11","0","0","0","12/10/19 17:41:41","The main experiment item","yes","tmp110oashp.osexp","C:/Users/lev/Documents","no","mono","no","18","no","white","no","yes","768","8","2","C:/Users/lev/Documents/Results_LJ/L16HO.csv","PRF","SG","PST","11","Kafkaesque Koffka","3.2.7","0","4","space","4","NA","7584","739483","7584","NA","2","Лена задумалась, понравились ли ей подарки.","1024","2","48000","-16","experiment","PRF","PL","PST","vos","16","even","854058","NA","742819","3331","854060","NA","3336","NA","687035","864541","3336","864460","856874","854060","733110","856873","NA","NA","687035","New experiment","0","1551368","14","yes","1024","6"
"undefined","undefined","103738.533333","103738.533333","black","legacy","20esli","0","li","esli","uniform","undefined","undefined","undefined","12","0","0","0","12","NA","0","0","0","12","2","12","12","12","1","12","0","0","0","12/10/19 17:41:41","The main experiment item","yes","tmp110oashp.osexp","C:/Users/lev/Documents","no","mono","no","18","no","white","no","yes","768","9","2","C:/Users/lev/Documents/Results_LJ/L16HO.csv","PRF","SG","PST","40","Kafkaesque Koffka","3.2.7","0","1","space","1","NA","4710","739483","4710","NA","2","Коля задумался, если в доме остались конфеты.","1024","2","48000","-16","experiment","PRF","PL","PST","ovs","16","even","864929","NA","742819","3331","864931","NA","3336","NA","687035","872666","3336","872586","867874","864931","733110","867873","NA","NA","687035","New experiment","0","1556078","15","yes","1024","7"
"undefined","undefined","97379.5625","97379.5625","black","legacy","5esli","0","li","esli","uniform","undefined","undefined","undefined","13","0","0","0","13","NA","0","0","0","13","2","13","13","13","1","13","0","0","0","12/10/19 17:41:41","The main experiment item","yes","tmp110oashp.osexp","C:/Users/lev/Documents","no","mono","no","18","no","white","no","yes","768","10","2","C:/Users/lev/Documents/Results_LJ/L16HO.csv","PRF","PL","PST","10","Kafkaesque Koffka","3.2.7","0","1","space","1","NA","1995","739483","1995","NA","2","Ученики забыли, если завтра будут занятия.","1024","2","48000","-16","experiment","IMP","PL","FUT","vo","16","even","873043","NA","742819","3331","873045","NA","3336","NA","687035","878039","3336","877959","875962","873046","733110","875962","NA","NA","687035","New experiment","0","1558073","16","yes","1024","6"
"undefined","undefined","91910.8823529","91910.8823529","black","legacy","11li","0","li","li","uniform","undefined","undefined","undefined","14","0","0","0","14","NA","0","0","0","14","2","14","14","14","1","14","0","0","0","12/10/19 17:41:41","The main experiment item","yes","tmp110oashp.osexp","C:/Users/lev/Documents","no","mono","no","18","no","white","no","yes","768","11","2","C:/Users/lev/Documents/Results_LJ/L16HO.csv","IMP","PL","PST","21","Kafkaesque Koffka","3.2.7","0","4","space","4","NA","4412","739483","4412","NA","2","Внуки узнавали, приедет ли летом бабушка. ","1024","2","48000","-16","experiment","PRF","SG","FUT","vos","16","even","878408","NA","742819","3331","878410","NA","3336","NA","687035","885619","3336","885539","881124","878410","733110","881124","NA","NA","687035","New experiment","0","1562485","17","yes","1024","6"
"undefined","undefined","87175.5555556","87175.5555556","black","legacy","9esli","0","li","esli","uniform","undefined","undefined","undefined","15","0","0","0","15","NA","0","0","0","15","2","15","15","15","1","15","0","0","0","12/10/19 17:41:41","The main experiment item","yes","tmp110oashp.osexp","C:/Users/lev/Documents","no","mono","no","18","no","white","no","yes","768","12","2","C:/Users/lev/Documents/Results_LJ/L16HO.csv","PRF","SG","PST","18","Kafkaesque Koffka","3.2.7","0","1","space","1","NA","6675","739483","6675","NA","2","Катя проверила, если она не забыла перчатки.","1024","2","48000","-16","experiment","PRF","SG","PST","svo","16","even","885956","NA","742819","3331","885958","NA","3336","NA","687035","895670","3336","895590","888912","885959","733110","888912","NA","NA","687035","New experiment","0","1569160","18","yes","1024","7"
"undefined","undefined","82707.4736842","82707.4736842","black","legacy","19li","0","li","li","uniform","undefined","undefined","undefined","16","0","0","0","16","NA","0","0","0","16","2","16","16","16","1","16","0","0","0","12/10/19 17:41:41","The main experiment item","yes","tmp110oashp.osexp","C:/Users/lev/Documents","no","mono","no","18","no","white","no","yes","768","13","2","C:/Users/lev/Documents/Results_LJ/L16HO.csv","PRF","PL","PST","37","Kafkaesque Koffka","3.2.7","0","5","space","5","NA","2282","739483","2282","NA","2","Соседи не сказали, полили ли они цветы.","1024","2","48000","-16","experiment","PRF","PL","PST","vso","16","even","896046","NA","742819","3331","896048","NA","3336","NA","687035","901276","3336","901196","898912","896048","733110","898912","NA","NA","687035","New experiment","0","1571442","19","yes","1024","7"
"undefined","undefined","78725.75","78725.75","black","legacy","8distr","0","li","distr","uniform","undefined","undefined","undefined","17","0","0","0","17","NA","0","0","0","17","2","17","17","17","1","17","0","0","0","12/10/19 17:41:41","The main experiment item","yes","tmp110oashp.osexp","C:/Users/lev/Documents","no","mono","no","18","no","white","no","yes","768","14","2","C:/Users/lev/Documents/Results_LJ/L16HO.csv","PRF","SG","FUT","48","Kafkaesque Koffka","3.2.7","0","5","space","5","NA","3073","739483","3073","NA","2","Мама съест пирожное, если оно будет вкусным.","1024","2","48000","-16","experiment","IMP","SG","FUT","sv","16","even","901663","NA","742819","3331","901665","NA","3336","NA","687035","907809","3336","907729","904653","901665","733110","904652","NA","NA","687035","New experiment","0","1574515","20","yes","1024","7"
"undefined","undefined","75228.1904762","75228.1904762","black","legacy","4distr","0","li","distr","uniform","undefined","undefined","undefined","18","0","0","0","18","NA","0","0","0","18","2","18","18","18","1","18","0","0","0","12/10/19 17:41:41","The main experiment item","yes","tmp110oashp.osexp","C:/Users/lev/Documents","no","mono","no","18","no","white","no","yes","768","15","2","C:/Users/lev/Documents/Results_LJ/L16HO.csv","PRF","SG","FUT","44","Kafkaesque Koffka","3.2.7","0","4","space","4","NA","5277","739483","5277","NA","2","Витя помоет посуду, если доделает уроки.","1024","2","48000","-16","experiment","PRF","SG","FUT","(s)vo","16","even","908191","NA","742819","3331","908193","NA","3336","NA","687035","916503","3336","916423","911143","908193","733110","911142","NA","NA","687035","New experiment","0","1579792","21","yes","1024","6"
"undefined","undefined","72284.3636364","72284.3636364","black","legacy","10esli","0","li","esli","uniform","undefined","undefined","undefined","19","0","0","0","19","NA","0","0","0","19","2","19","19","19","1","19","0","0","0","12/10/19 17:41:41","The main experiment item","yes","tmp110oashp.osexp","C:/Users/lev/Documents","no","mono","no","18","no","white","no","yes","768","16","2","C:/Users/lev/Documents/Results_LJ/L16HO.csv","IMP","PL","PST","20","Kafkaesque Koffka","3.2.7","0","1","space","1","NA","10464","739483","10464","NA","2","Они интересовались, если журналисты написали про выборы.","1024","2","48000","-16","experiment","PRF","PL","PST","svo","16","even","916913","NA","742819","3331","916915","NA","3336","NA","687035","930820","3336","930740","920273","916915","733110","920272","NA","NA","687035","New experiment","0","1590256","22","yes","1024","7"
"undefined","undefined","69430.826087","69430.826087","black","legacy","9distr","0","li","distr","uniform","undefined","undefined","undefined","20","0","0","0","20","NA","0","0","0","20","2","20","20","20","1","20","0","0","0","12/10/19 17:41:41","The main experiment item","yes","tmp110oashp.osexp","C:/Users/lev/Documents","no","mono","no","18","no","white","no","yes","768","17","2","C:/Users/lev/Documents/Results_LJ/L16HO.csv","PRF","SG","FUT","49","Kafkaesque Koffka","3.2.7","0","5","space","5","NA","6653","739483","6653","NA","2","Маша позвонит другу, если он будет дома.","1024","2","48000","-16","experiment","IMP","SG","FUT","svo","16","even","931193","NA","742819","3331","931195","NA","3336","NA","687035","940748","3336","940667","934012","931195","733110","934012","NA","NA","687035","New experiment","0","1596909","23","yes","1024","7"
"undefined","undefined","66660","66660","black","legacy","13li","0","li","li","uniform","undefined","undefined","undefined","21","0","0","0","21","NA","0","0","0","21","2","21","21","21","1","21","0","0","0","12/10/19 17:41:41","The main experiment item","yes","tmp110oashp.osexp","C:/Users/lev/Documents","no","mono","no","18","no","white","no","yes","768","18","2","C:/Users/lev/Documents/Results_LJ/L16HO.csv","PRF","SG","PST","25","Kafkaesque Koffka","3.2.7","0","5","space","5","NA","2931","739483","2931","NA","2","Витя забыл, будет ли во вторник игра.","1024","2","48000","-16","experiment","IMP","SG","FUT","vo","16","even","941058","NA","742819","3331","941060","NA","3336","NA","687035","946366","3336","946285","943352","941060","733110","943352","NA","NA","687035","New experiment","0","1599840","24","yes","1024","7"
"undefined","undefined","64213.28","64213.28","black","legacy","7esli","0","li","esli","uniform","undefined","undefined","undefined","22","0","0","0","22","NA","0","0","0","22","2","22","22","22","1","22","0","0","0","12/10/19 17:41:41","The main experiment item","yes","tmp110oashp.osexp","C:/Users/lev/Documents","no","mono","no","18","no","white","no","yes","768","19","2","C:/Users/lev/Documents/Results_LJ/L16HO.csv","PRF","PL","PST","14","Kafkaesque Koffka","3.2.7","0","1","space","1","NA","5492","739483","5492","NA","2","Братья не сказали, если они покормили собаку.","1024","2","48000","-16","experiment","PRF","PL","PST","svo","16","even","946758","NA","742819","3331","946760","NA","3336","NA","687035","955417","3336","955337","949842","946760","733110","949842","NA","NA","687035","New experiment","0","1605332","25","yes","1024","7"
"undefined","undefined","61800.6923077","61800.6923077","black","legacy","7distr","0","li","distr","uniform","undefined","undefined","undefined","23","0","0","0","23","NA","0","0","0","23","2","23","23","23","1","23","0","0","0","12/10/19 17:41:41","The main experiment item","yes","tmp110oashp.osexp","C:/Users/lev/Documents","no","mono","no","18","no","white","no","yes","768","20","2","C:/Users/lev/Documents/Results_LJ/L16HO.csv","PRF","SG","FUT","47","Kafkaesque Koffka","3.2.7","0","5","space","5","NA","1486","739483","1486","NA","2","Рита останется дома, если сильно заболеет.","1024","2","48000","-16","experiment","PRF","SG","FUT","(s)ov","16","even","955819","NA","742819","3331","955821","NA","3336","NA","687035","960354","3336","960274","958784","955821","733110","958784","NA","NA","687035","New experiment","0","1606818","26","yes","1024","6"
"undefined","undefined","59678.037037","59678.037037","black","legacy","16li","0","li","li","uniform","undefined","undefined","undefined","24","0","0","0","24","NA","0","0","0","24","2","24","24","24","1","24","0","0","0","12/10/19 17:41:41","The main experiment item","yes","tmp110oashp.osexp","C:/Users/lev/Documents","no","mono","no","18","no","white","no","yes","768","21","2","C:/Users/lev/Documents/Results_LJ/L16HO.csv","IMP","PL","PST","31","Kafkaesque Koffka","3.2.7","0","5","space","5","NA","4489","739483","4489","NA","2","Родители сомневались, помыл ли Даня посуду.","1024","2","48000","-16","experiment","PRF","SG","PST","vso","16","even","960719","NA","742819","3331","960722","NA","3336","NA","687035","968176","3336","968095","963604","960722","733110","963603","NA","NA","687035","New experiment","0","1611307","27","yes","1024","6"
"undefined","undefined","57706.5357143","57706.5357143","black","legacy","5distr","0","li","distr","uniform","undefined","undefined","undefined","25","0","0","0","25","NA","0","0","0","25","2","25","25","25","1","25","0","0","0","12/10/19 17:41:41","The main experiment item","yes","tmp110oashp.osexp","C:/Users/lev/Documents","no","mono","no","18","no","white","no","yes","768","22","2","C:/Users/lev/Documents/Results_LJ/L16HO.csv","PRF","SG","FUT","45","Kafkaesque Koffka","3.2.7","0","5","space","5","NA","4476","739483","4476","NA","2","Саша доест яблоко, если оно будет сладким.","1024","2","48000","-16","experiment","IMP","SG","FUT","sv","16","even","968575","NA","742819","3331","968577","NA","3336","NA","687035","976111","3336","976031","971553","968577","733110","971552","NA","NA","687035","New experiment","0","1615783","28","yes","1024","7"
"undefined","undefined","55800.137931","55800.137931","black","legacy","14li","0","li","li","uniform","undefined","undefined","undefined","26","0","0","0","26","NA","0","0","0","26","2","26","26","26","1","26","0","0","0","12/10/19 17:41:41","The main experiment item","yes","tmp110oashp.osexp","C:/Users/lev/Documents","no","mono","no","18","no","white","no","yes","768","23","2","C:/Users/lev/Documents/Results_LJ/L16HO.csv","IMP","PL","PST","27","Kafkaesque Koffka","3.2.7","0","5","space","5","NA","2421","739483","2421","NA","2","Мальчики не знали, принесли ли друзья торт.","1024","2","48000","-16","experiment","PRF","PL","PST","vso","16","even","976475","NA","742819","3331","976477","NA","3336","NA","687035","981715","3336","981635","979212","976477","733110","979211","NA","NA","687035","New experiment","0","1618204","29","yes","1024","7"
"undefined","undefined","54001.5666667","54001.5666667","black","legacy","2distr","0","li","distr","uniform","undefined","undefined","undefined","27","0","0","0","27","NA","0","0","0","27","2","27","27","27","1","27","0","0","0","12/10/19 17:41:41","The main experiment item","yes","tmp110oashp.osexp","C:/Users/lev/Documents","no","mono","no","18","no","white","no","yes","768","24","2","C:/Users/lev/Documents/Results_LJ/L16HO.csv","PRF","SG","FUT","42","Kafkaesque Koffka","3.2.7","0","5","space","5","NA","1843","739483","1843","NA","2","Вася купит картошку, если придёт зарплата.","1024","2","48000","-16","experiment","IMP","SG","FUT","svo","16","even","982085","NA","742819","3331","982087","NA","3336","NA","687035","986877","3336","986797","984951","982087","733110","984951","NA","NA","687035","New experiment","0","1620047","30","yes","1024","#REF!"
"undefined","undefined","52357.7419355","52357.7419355","black","legacy","4esli","0","li","esli","uniform","undefined","undefined","undefined","28","0","0","0","28","NA","0","0","0","28","2","28","28","28","1","28","0","0","0","12/10/19 17:41:41","The main experiment item","yes","tmp110oashp.osexp","C:/Users/lev/Documents","no","mono","no","18","no","white","no","yes","768","25","2","C:/Users/lev/Documents/Results_LJ/L16HO.csv","PRF","SG","PST","8","Kafkaesque Koffka","3.2.7","0","1","space","1","NA","3043","739483","3043","NA","2","Петя спросил, если Вася смотрел кино.","1024","2","48000","-16","experiment","IMP","SG","PST","svo","16","even","987224","NA","742819","3331","987226","NA","3336","NA","687035","992988","3336","992908","989863","987226","733110","989862","NA","NA","687035","New experiment","0","1623090","31","yes","1024","6"
"undefined","undefined","50797.34375","50797.34375","black","legacy","17li","0","li","li","uniform","undefined","undefined","undefined","29","0","0","0","29","NA","0","0","0","29","2","29","29","29","1","29","0","0","0","12/10/19 17:41:41","The main experiment item","yes","tmp110oashp.osexp","C:/Users/lev/Documents","no","mono","no","18","no","white","no","yes","768","26","2","C:/Users/lev/Documents/Results_LJ/L16HO.csv","PRF","SG","PST","33","Kafkaesque Koffka","3.2.7","0","5","space","5","NA","2425","739483","2425","NA","2","Вася не решил, купит ли он газету.","1024","2","48000","-16","experiment","PRF","SG","FUT","vso","16","even","993345","NA","742819","3331","993347","NA","3336","NA","687035","998170","3336","998090","995662","993347","733110","995661","NA","NA","687035","New experiment","0","1625515","32","yes","1024","7"
