"acc","accuracy","average_response_time","avg_rt","background","canvas_backend","coding","compensation","condition","conditon","coordinates","correct","correct_next","correct_response_1","count_exp_sequence","count_exp_sequence1","count_exp_sequence2","count_experiment","count_fixation","count_getting_started","count_instr","count_list1","count_list2","count_logger","count_next","count_pause","count_response_1","count_sound","count_start_exp","count_task","count_thanks","count_training1","count_training2","datetime","description","disable_garbage_collection","experiment_file","experiment_path","font_bold","font_family","font_italic","font_size","font_underline","foreground","form_clicks","fullscreen","height","live_row","live_row_training1","logfile","main_asp","main_num","main_tense","num","opensesame_codename","opensesame_version","repeat_cycle","response","response_next","response_response_1","response_thanks","response_time","response_time_next","response_time_response_1","response_time_thanks","round_decimals","sentence_rus","sound_buf_size","sound_channels","sound_freq","sound_sample_size","start","sub_asp","sub_num","sub_tense","sub_wo","subject_nr","subject_parity","time_exp_sequence","time_exp_sequence1","time_exp_sequence2","time_experiment","time_fixation","time_getting_started","time_instr","time_list1","time_list2","time_logger","time_next","time_pause","time_response_1","time_sound","time_start_exp","time_task","time_thanks","time_training1","time_training2","title","total_correct","total_response_time","total_responses","uniform_coordinates","width","word_count"
"undefined","undefined","8122.5","8122.5","black","legacy","10distr","0","distr","NA","uniform","undefined","undefined","undefined","0","0","0","0","0","NA","0","0","0","0","2","0","0","0","1","0","0","0","0","Mon Dec 16 22:02:42 2019","The main experiment item","yes","liesli (2).osexp","C:/Users/sonja/OneDrive/EMCL+/Linglab/experiment","no","mono","no","18","no","white","no","yes","768","0","0","C:/Users/sonja/OneDrive/EMCL+/Linglab/experiment/L23HOnnn.csv","PRF","SG","FUT","50","Kafkaesque Koffka","3.2.7","0","5","space","5","NA","12850","3395","12850","NA","2","Дима проверит почту, если компьютер включится.","1024","2","48000","-16","experiment","PRF","SG","FUT","sv","23","odd","6648","NA","NA","2679","6652","NA","2685","6088","NA","22613","2687","22533","9680","6652","NA","9680","NA","6089","NA","New experiment","0","16245","2","yes","1024","6"
"undefined","undefined","6438.333333333333","6438.333333333333","black","legacy","2li","0","li","NA","uniform","undefined","undefined","undefined","1","0","0","0","1","NA","0","0","0","1","2","1","1","1","1","1","0","0","0","Mon Dec 16 22:02:42 2019","The main experiment item","yes","liesli (2).osexp","C:/Users/sonja/OneDrive/EMCL+/Linglab/experiment","no","mono","no","18","no","white","no","yes","768","1","1","C:/Users/sonja/OneDrive/EMCL+/Linglab/experiment/L23HOnnn.csv","PRF","PL","PST","3","Kafkaesque Koffka","3.2.7","0","5","space","5","NA","3070","3395","3070","NA","2","Гости не сообщили, приедут ли они.","1024","2","48000","-16","experiment","PRF","PL","FUT","vs","23","odd","23267","NA","NA","2679","23270","NA","2685","6088","NA","28805","2687","28725","25652","23270","NA","25652","NA","6089","NA","New experiment","0","19315","3","yes","1024","6"
"undefined","undefined","5361","5361","black","legacy","12esli","0","esli","NA","uniform","undefined","undefined","undefined","2","0","0","0","2","NA","0","0","0","2","2","2","2","2","1","2","0","0","0","Mon Dec 16 22:02:42 2019","The main experiment item","yes","liesli (2).osexp","C:/Users/sonja/OneDrive/EMCL+/Linglab/experiment","no","mono","no","18","no","white","no","yes","768","2","2","C:/Users/sonja/OneDrive/EMCL+/Linglab/experiment/L23HOnnn.csv","PRF","SG","PST","24","Kafkaesque Koffka","3.2.7","0","1","space","1","NA","2129","3395","2129","NA","2","Нина спросила, если дети поели.","1024","2","48000","-16","experiment","PRF","PL","PST","sv","23","odd","29302","NA","NA","2679","29306","NA","2685","6088","NA","33730","2687","33650","31519","29306","NA","31519","NA","6089","NA","New experiment","0","21444","4","yes","1024","5"
"undefined","undefined","10521.166666666666","10521.166666666666","black","legacy","8li","0","li","NA","uniform","undefined","undefined","undefined","3","0","0","0","3","NA","0","0","0","3","2","3","3","3","1","3","0","0","0","Mon Dec 16 22:02:42 2019","The main experiment item","yes","liesli (2).osexp","C:/Users/sonja/OneDrive/EMCL+/Linglab/experiment","no","mono","no","18","no","white","no","yes","768","0","2","C:/Users/sonja/OneDrive/EMCL+/Linglab/experiment/L23HOnnn.csv","PRF","SG","PST","15","Kafkaesque Koffka","3.2.7","0","2","space","2","NA","4712","36971","4712","NA","2","Миша уточнил, будет ли на обед суп.","1024","2","48000","-16","experiment","IMP","SG","FUT","vos","23","odd","40156","39658","NA","2679","40168","NA","2685","6088","NA","47411","2687","47331","42615","40168","33755","42615","NA","6089","NA","New experiment","0","63127","6","yes","1024","7"
"undefined","undefined","9235.142857142857","9235.142857142857","black","legacy","1li","0","li","NA","uniform","undefined","undefined","undefined","4","0","0","0","4","NA","0","0","0","4","2","4","4","4","1","4","0","0","0","Mon Dec 16 22:02:42 2019","The main experiment item","yes","liesli (2).osexp","C:/Users/sonja/OneDrive/EMCL+/Linglab/experiment","no","mono","no","18","no","white","no","yes","768","1","2","C:/Users/sonja/OneDrive/EMCL+/Linglab/experiment/L23HOnnn.csv","IMP","SG","PST","1","Kafkaesque Koffka","3.2.7","0","5","space","5","NA","1519","36971","1519","NA","2","Саша не знала, придут ли дети домой.","1024","2","48000","-16","experiment","PRF","PL","FUT","vso","23","odd","47958","39658","NA","2679","47961","NA","2685","6088","NA","51971","2687","51891","50369","47961","33755","50369","NA","6089","NA","New experiment","0","64646","7","yes","1024","7"
"undefined","undefined","8137.75","8137.75","black","legacy","18esli","0","esli","NA","uniform","undefined","undefined","undefined","5","0","0","0","5","NA","0","0","0","5","2","5","5","5","1","5","0","0","0","Mon Dec 16 22:02:42 2019","The main experiment item","yes","liesli (2).osexp","C:/Users/sonja/OneDrive/EMCL+/Linglab/experiment","no","mono","no","18","no","white","no","yes","768","2","2","C:/Users/sonja/OneDrive/EMCL+/Linglab/experiment/L23HOnnn.csv","PRF","PL","PST","36","Kafkaesque Koffka","3.2.7","0","1","space","1","NA","456","36971","456","NA","2","Хозяева уточнили, если Маша выключила плиту.","1024","2","48000","-16","experiment","PRF","SG","PST","svo","23","odd","52529","39658","NA","2679","52537","NA","2685","6088","NA","56129","2687","56049","55589","52537","33755","55589","NA","6089","NA","New experiment","0","65102","8","yes","1024","6"
"undefined","undefined","7376.444444444444","7376.444444444444","black","legacy","3distr","0","distr","NA","uniform","undefined","undefined","undefined","6","0","0","0","6","NA","0","0","0","6","2","6","6","6","1","6","0","0","0","Mon Dec 16 22:02:42 2019","The main experiment item","yes","liesli (2).osexp","C:/Users/sonja/OneDrive/EMCL+/Linglab/experiment","no","mono","no","18","no","white","no","yes","768","3","2","C:/Users/sonja/OneDrive/EMCL+/Linglab/experiment/L23HOnnn.csv","PRF","SG","FUT","43","Kafkaesque Koffka","3.2.7","0","5","space","5","NA","1286","36971","1286","NA","2","Таня посмотрит новости, если заработает телевизор.","1024","2","48000","-16","experiment","PRF","SG","FUT","vs","23","odd","56775","39658","NA","2679","56778","NA","2685","6088","NA","61343","2687","61263","59970","56778","33755","59970","NA","6089","NA","New experiment","0","66388","9","yes","1024","6"
"undefined","undefined","7033.7","7033.7","black","legacy","1distr","0","distr","NA","uniform","undefined","undefined","undefined","7","0","0","0","7","NA","0","0","0","7","2","7","7","7","1","7","0","0","0","Mon Dec 16 22:02:42 2019","The main experiment item","yes","liesli (2).osexp","C:/Users/sonja/OneDrive/EMCL+/Linglab/experiment","no","mono","no","18","no","white","no","yes","768","4","2","C:/Users/sonja/OneDrive/EMCL+/Linglab/experiment/L23HOnnn.csv","PRF","SG","FUT","41","Kafkaesque Koffka","3.2.7","0","5","space","5","NA","3949","36971","3949","NA","2","Папа придёт поздно, если вечером будет снег.","1024","2","48000","-16","experiment","IMP","PL","FUT","ovs","23","odd","61758","39658","NA","2679","61761","NA","2685","6088","NA","68532","2687","68452","64500","61761","33755","64500","NA","6089","NA","New experiment","0","70337","10","yes","1024","7"
"undefined","undefined","6486.454545454545","6486.454545454545","black","legacy","15esli","0","esli","NA","uniform","undefined","undefined","undefined","8","0","0","0","8","NA","0","0","0","8","2","8","8","8","1","8","0","0","0","Mon Dec 16 22:02:42 2019","The main experiment item","yes","liesli (2).osexp","C:/Users/sonja/OneDrive/EMCL+/Linglab/experiment","no","mono","no","18","no","white","no","yes","768","5","2","C:/Users/sonja/OneDrive/EMCL+/Linglab/experiment/L23HOnnn.csv","PRF","SG","PST","30","Kafkaesque Koffka","3.2.7","0","1","space","1","NA","1014","36971","1014","NA","2","Учитель поинтересовался, если ученики выполнили задание.","1024","2","48000","-16","experiment","PRF","PL","PST","svo","23","odd","69122","39658","NA","2679","69124","NA","2685","6088","NA","73768","2687","73688","72671","69124","33755","72671","NA","6089","NA","New experiment","0","71351","11","yes","1024","6"
"undefined","undefined","6287.083333333333","6287.083333333333","black","legacy","3li","0","li","NA","uniform","undefined","undefined","undefined","9","0","0","0","9","NA","0","0","0","9","2","9","9","9","1","9","0","0","0","Mon Dec 16 22:02:42 2019","The main experiment item","yes","liesli (2).osexp","C:/Users/sonja/OneDrive/EMCL+/Linglab/experiment","no","mono","no","18","no","white","no","yes","768","6","2","C:/Users/sonja/OneDrive/EMCL+/Linglab/experiment/L23HOnnn.csv","IMP","PL","PST","5","Kafkaesque Koffka","3.2.7","0","3","space","3","NA","4094","36971","4094","NA","2","Туристы сомневались, будет ли вечером дождь.","1024","2","48000","-16","experiment","IMP","SG","FUT","vs","23","odd","74167","39658","NA","2679","74169","NA","2685","6088","NA","81100","2687","81020","76914","74169","33755","76914","NA","6089","NA","New experiment","0","75445","12","yes","1024","6"
"undefined","undefined","5925.7692307692305","5925.7692307692305","black","legacy","6distr","0","distr","NA","uniform","undefined","undefined","undefined","10","0","0","0","10","NA","0","0","0","10","2","10","10","10","1","10","0","0","0","Mon Dec 16 22:02:42 2019","The main experiment item","yes","liesli (2).osexp","C:/Users/sonja/OneDrive/EMCL+/Linglab/experiment","no","mono","no","18","no","white","no","yes","768","7","2","C:/Users/sonja/OneDrive/EMCL+/Linglab/experiment/L23HOnnn.csv","PRF","SG","FUT","46","Kafkaesque Koffka","3.2.7","0","5","space","5","NA","1590","36971","1590","NA","2","Женя пойдёт гулять, если его позовут.","1024","2","48000","-16","experiment","PRF","SG","FUT","ov","23","odd","81402","39658","NA","2679","81404","NA","2685","6088","NA","85584","2687","85504","83911","81404","33755","83911","NA","6089","NA","New experiment","0","77035","13","yes","1024","6"
"undefined","undefined","5550","5550","black","legacy","6esli","0","esli","NA","uniform","undefined","undefined","undefined","11","0","0","0","11","NA","0","0","0","11","2","11","11","11","1","11","0","0","0","Mon Dec 16 22:02:42 2019","The main experiment item","yes","liesli (2).osexp","C:/Users/sonja/OneDrive/EMCL+/Linglab/experiment","no","mono","no","18","no","white","no","yes","768","8","2","C:/Users/sonja/OneDrive/EMCL+/Linglab/experiment/L23HOnnn.csv","PRF","SG","PST","12","Kafkaesque Koffka","3.2.7","0","1","space","1","NA","665","36971","665","NA","2","Лена задумалась, если ей понравились подарки.","1024","2","48000","-16","experiment","PRF","PL","PST","ovs","23","odd","86012","39658","NA","2679","86013","NA","2685","6088","NA","89707","2687","89627","88958","86013","33755","88957","NA","6089","NA","New experiment","0","77700","14","yes","1024","6"
"undefined","undefined","5237.666666666667","5237.666666666667","black","legacy","20li","0","li","NA","uniform","undefined","undefined","undefined","12","0","0","0","12","NA","0","0","0","12","2","12","12","12","1","12","0","0","0","Mon Dec 16 22:02:42 2019","The main experiment item","yes","liesli (2).osexp","C:/Users/sonja/OneDrive/EMCL+/Linglab/experiment","no","mono","no","18","no","white","no","yes","768","9","2","C:/Users/sonja/OneDrive/EMCL+/Linglab/experiment/L23HOnnn.csv","PRF","SG","PST","39","Kafkaesque Koffka","3.2.7","0","5","space","5","NA","865","36971","865","NA","2","Коля задумался, остались ли в доме конфеты","1024","2","48000","-16","experiment","PRF","PL","PST","vos","23","odd","90074","39658","NA","2679","90075","NA","2685","6088","NA","93988","2687","93908","93041","90075","33755","93041","NA","6089","NA","New experiment","0","78565","15","yes","1024","7"
"undefined","undefined","5024.8125","5024.8125","black","legacy","5li","0","li","NA","uniform","undefined","undefined","undefined","13","0","0","0","13","NA","0","0","0","13","2","13","13","13","1","13","0","0","0","Mon Dec 16 22:02:42 2019","The main experiment item","yes","liesli (2).osexp","C:/Users/sonja/OneDrive/EMCL+/Linglab/experiment","no","mono","no","18","no","white","no","yes","768","10","2","C:/Users/sonja/OneDrive/EMCL+/Linglab/experiment/L23HOnnn.csv","PRF","PL","PST","9","Kafkaesque Koffka","3.2.7","0","5","space","5","NA","1832","36971","1832","NA","2","Ученики забыли, будут ли завтра занятия.","1024","2","48000","-16","experiment","IMP","PL","FUT","vs","23","odd","94293","39658","NA","2679","94295","NA","2685","6088","NA","98986","2687","98906","97071","94295","33755","97071","NA","6089","NA","New experiment","0","80397","16","yes","1024","6"
"undefined","undefined","4778.941176470588","4778.941176470588","black","legacy","11esli","0","esli","NA","uniform","undefined","undefined","undefined","14","0","0","0","14","NA","0","0","0","14","2","14","14","14","1","14","0","0","0","Mon Dec 16 22:02:42 2019","The main experiment item","yes","liesli (2).osexp","C:/Users/sonja/OneDrive/EMCL+/Linglab/experiment","no","mono","no","18","no","white","no","yes","768","11","2","C:/Users/sonja/OneDrive/EMCL+/Linglab/experiment/L23HOnnn.csv","IMP","PL","PST","22","Kafkaesque Koffka","3.2.7","0","1","space","1","NA","845","36971","845","NA","2","Внуки узнавали, если летом приедет бабушка. ","1024","2","48000","-16","experiment","PRF","SG","FUT","ovs","23","odd","99554","39658","NA","2679","99556","NA","2685","6088","NA","103452","2687","103371","102523","99556","33755","102522","NA","6089","NA","New experiment","0","81242","17","yes","1024","6"
"undefined","undefined","4553.055555555556","4553.055555555556","black","legacy","9li","0","li","NA","uniform","undefined","undefined","undefined","15","0","0","0","15","NA","0","0","0","15","2","15","15","15","1","15","0","0","0","Mon Dec 16 22:02:42 2019","The main experiment item","yes","liesli (2).osexp","C:/Users/sonja/OneDrive/EMCL+/Linglab/experiment","no","mono","no","18","no","white","no","yes","768","12","2","C:/Users/sonja/OneDrive/EMCL+/Linglab/experiment/L23HOnnn.csv","PRF","SG","PST","17","Kafkaesque Koffka","3.2.7","0","5","space","5","NA","713","36971","713","NA","2","Катя проверила, не забыла ли она перчатки.","1024","2","48000","-16","experiment","PRF","SG","PST","vso","23","odd","103949","39658","NA","2679","103951","NA","2685","6088","NA","107422","2687","107342","106626","103951","33755","106626","NA","6089","NA","New experiment","0","81955","18","yes","1024","7"
"undefined","undefined","4357.684210526316","4357.684210526316","black","legacy","19esli","0","esli","NA","uniform","undefined","undefined","undefined","16","0","0","0","16","NA","0","0","0","16","2","16","16","16","1","16","0","0","0","Mon Dec 16 22:02:42 2019","The main experiment item","yes","liesli (2).osexp","C:/Users/sonja/OneDrive/EMCL+/Linglab/experiment","no","mono","no","18","no","white","no","yes","768","13","2","C:/Users/sonja/OneDrive/EMCL+/Linglab/experiment/L23HOnnn.csv","PRF","PL","PST","38","Kafkaesque Koffka","3.2.7","0","1","space","1","NA","841","36971","841","NA","2","Соседи не сказали, если они полили цветы.","1024","2","48000","-16","experiment","PRF","PL","PST","svo","23","odd","107906","39658","NA","2679","107916","NA","2685","6088","NA","111638","2687","111558","110709","107917","33755","110709","NA","6089","NA","New experiment","0","82796","19","yes","1024","7"
"undefined","undefined","4191.45","4191.45","black","legacy","8distr","0","distr","NA","uniform","undefined","undefined","undefined","17","0","0","0","17","NA","0","0","0","17","2","17","17","17","1","17","0","0","0","Mon Dec 16 22:02:42 2019","The main experiment item","yes","liesli (2).osexp","C:/Users/sonja/OneDrive/EMCL+/Linglab/experiment","no","mono","no","18","no","white","no","yes","768","14","2","C:/Users/sonja/OneDrive/EMCL+/Linglab/experiment/L23HOnnn.csv","PRF","SG","FUT","48","Kafkaesque Koffka","3.2.7","0","5","space","5","NA","1033","36971","1033","NA","2","Мама съест пирожное, если оно будет вкусным.","1024","2","48000","-16","experiment","IMP","SG","FUT","sv","23","odd","112074","39658","NA","2679","112076","NA","2685","6088","NA","116185","2687","116105","115069","112076","33755","115069","NA","6089","NA","New experiment","0","83829","20","yes","1024","7"
"undefined","undefined","4018.7619047619046","4018.7619047619046","black","legacy","4distr","0","distr","NA","uniform","undefined","undefined","undefined","18","0","0","0","18","NA","0","0","0","18","2","18","18","18","1","18","0","0","0","Mon Dec 16 22:02:42 2019","The main experiment item","yes","liesli (2).osexp","C:/Users/sonja/OneDrive/EMCL+/Linglab/experiment","no","mono","no","18","no","white","no","yes","768","15","2","C:/Users/sonja/OneDrive/EMCL+/Linglab/experiment/L23HOnnn.csv","PRF","SG","FUT","44","Kafkaesque Koffka","3.2.7","0","5","space","5","NA","565","36971","565","NA","2","Витя помоет посуду, если доделает уроки.","1024","2","48000","-16","experiment","PRF","SG","FUT","(s)vo","23","odd","116571","39658","NA","2679","116572","NA","2685","6088","NA","120163","2687","120083","119511","116573","33755","119511","NA","6089","NA","New experiment","0","84394","21","yes","1024","6"
"undefined","undefined","3926.318181818182","3926.318181818182","black","legacy","10li","0","li","NA","uniform","undefined","undefined","undefined","19","0","0","0","19","NA","0","0","0","19","2","19","19","19","1","19","0","0","0","Mon Dec 16 22:02:42 2019","The main experiment item","yes","liesli (2).osexp","C:/Users/sonja/OneDrive/EMCL+/Linglab/experiment","no","mono","no","18","no","white","no","yes","768","16","2","C:/Users/sonja/OneDrive/EMCL+/Linglab/experiment/L23HOnnn.csv","IMP","PL","PST","19","Kafkaesque Koffka","3.2.7","0","5","space","5","NA","1985","36971","1985","NA","2","Они интересовались, написали ли журналисты про выборы.","1024","2","48000","-16","experiment","PRF","PL","PST","vso","23","odd","120693","39658","NA","2679","120695","NA","2685","6088","NA","126012","2687","125931","123941","120695","33755","123941","NA","6089","NA","New experiment","0","86379","22","yes","1024","7"
"undefined","undefined","3793.1304347826085","3793.1304347826085","black","legacy","9distr","0","distr","NA","uniform","undefined","undefined","undefined","20","0","0","0","20","NA","0","0","0","20","2","20","20","20","1","20","0","0","0","Mon Dec 16 22:02:42 2019","The main experiment item","yes","liesli (2).osexp","C:/Users/sonja/OneDrive/EMCL+/Linglab/experiment","no","mono","no","18","no","white","no","yes","768","17","2","C:/Users/sonja/OneDrive/EMCL+/Linglab/experiment/L23HOnnn.csv","PRF","SG","FUT","49","Kafkaesque Koffka","3.2.7","0","5","space","5","NA","863","36971","863","NA","2","Маша позвонит другу, если он будет дома.","1024","2","48000","-16","experiment","IMP","SG","FUT","svo","23","odd","126387","39658","NA","2679","126389","NA","2685","6088","NA","130137","2687","130057","129190","126389","33755","129189","NA","6089","NA","New experiment","0","87242","23","yes","1024","7"
"undefined","undefined","3659.375","3659.375","black","legacy","13esli","0","esli","NA","uniform","undefined","undefined","undefined","21","0","0","0","21","NA","0","0","0","21","2","21","21","21","1","21","0","0","0","Mon Dec 16 22:02:42 2019","The main experiment item","yes","liesli (2).osexp","C:/Users/sonja/OneDrive/EMCL+/Linglab/experiment","no","mono","no","18","no","white","no","yes","768","18","2","C:/Users/sonja/OneDrive/EMCL+/Linglab/experiment/L23HOnnn.csv","PRF","SG","PST","26","Kafkaesque Koffka","3.2.7","0","1","space","1","NA","583","36971","583","NA","2","Витя забыл, если во вторник будет игра.","1024","2","48000","-16","experiment","IMP","SG","FUT","ovs","23","odd","130694","39658","NA","2679","130696","NA","2685","6088","NA","133909","2687","133829","133243","130696","33755","133243","NA","6089","NA","New experiment","0","87825","24","yes","1024","7"
"undefined","undefined","3579.44","3579.44","black","legacy","7li","0","li","NA","uniform","undefined","undefined","undefined","22","0","0","0","22","NA","0","0","0","22","2","22","22","22","1","22","0","0","0","Mon Dec 16 22:02:42 2019","The main experiment item","yes","liesli (2).osexp","C:/Users/sonja/OneDrive/EMCL+/Linglab/experiment","no","mono","no","18","no","white","no","yes","768","19","2","C:/Users/sonja/OneDrive/EMCL+/Linglab/experiment/L23HOnnn.csv","PRF","PL","PST","13","Kafkaesque Koffka","3.2.7","0","5","space","5","NA","1661","36971","1661","NA","2","Братья не сказали, покормили ли они собаку.","1024","2","48000","-16","experiment","PRF","PL","PST","vso","23","odd","134384","39658","NA","2679","134396","NA","2685","6088","NA","139068","2687","138987","137320","134396","33755","137320","NA","6089","NA","New experiment","0","89486","25","yes","1024","7"
"undefined","undefined","3482.8846153846152","3482.8846153846152","black","legacy","7distr","0","distr","NA","uniform","undefined","undefined","undefined","23","0","0","0","23","NA","0","0","0","23","2","23","23","23","1","23","0","0","0","Mon Dec 16 22:02:42 2019","The main experiment item","yes","liesli (2).osexp","C:/Users/sonja/OneDrive/EMCL+/Linglab/experiment","no","mono","no","18","no","white","no","yes","768","20","2","C:/Users/sonja/OneDrive/EMCL+/Linglab/experiment/L23HOnnn.csv","PRF","SG","FUT","47","Kafkaesque Koffka","3.2.7","0","5","space","5","NA","1069","36971","1069","NA","2","Рита останется дома, если сильно заболеет.","1024","2","48000","-16","experiment","PRF","SG","FUT","(s)ov","23","odd","139598","39658","NA","2679","139600","NA","2685","6088","NA","143731","2687","143651","142572","139600","33755","142572","NA","6089","NA","New experiment","0","90555","26","yes","1024","6"
"undefined","undefined","3437.1481481481483","3437.1481481481483","black","legacy","16esli","0","esli","NA","uniform","undefined","undefined","undefined","24","0","0","0","24","NA","0","0","0","24","2","24","24","24","1","24","0","0","0","Mon Dec 16 22:02:42 2019","The main experiment item","yes","liesli (2).osexp","C:/Users/sonja/OneDrive/EMCL+/Linglab/experiment","no","mono","no","18","no","white","no","yes","768","21","2","C:/Users/sonja/OneDrive/EMCL+/Linglab/experiment/L23HOnnn.csv","IMP","PL","PST","32","Kafkaesque Koffka","3.2.7","0","1","space","1","NA","2248","36971","2248","NA","2","Родители сомневалась, если Даня помыл посуду.","1024","2","48000","-16","experiment","PRF","SG","PST","svo","23","odd","144241","39658","NA","2679","144243","NA","2685","6088","NA","149571","2687","149491","147241","144243","33755","147241","NA","6089","NA","New experiment","0","92803","27","yes","1024","6"
"undefined","undefined","3353.25","3353.25","black","legacy","5distr","0","distr","NA","uniform","undefined","undefined","undefined","25","0","0","0","25","NA","0","0","0","25","2","25","25","25","1","25","0","0","0","Mon Dec 16 22:02:42 2019","The main experiment item","yes","liesli (2).osexp","C:/Users/sonja/OneDrive/EMCL+/Linglab/experiment","no","mono","no","18","no","white","no","yes","768","22","2","C:/Users/sonja/OneDrive/EMCL+/Linglab/experiment/L23HOnnn.csv","PRF","SG","FUT","45","Kafkaesque Koffka","3.2.7","0","5","space","5","NA","1088","36971","1088","NA","2","Саша доест яблоко, если оно будет сладким.","1024","2","48000","-16","experiment","IMP","SG","FUT","sv","23","odd","150139","39658","NA","2679","150141","NA","2685","6088","NA","154302","2687","154222","153132","150141","33755","153132","NA","6089","NA","New experiment","0","93891","28","yes","1024","7"
"undefined","undefined","3271.1724137931033","3271.1724137931033","black","legacy","14esli","0","esli","NA","uniform","undefined","undefined","undefined","26","0","0","0","26","NA","0","0","0","26","2","26","26","26","1","26","0","0","0","Mon Dec 16 22:02:42 2019","The main experiment item","yes","liesli (2).osexp","C:/Users/sonja/OneDrive/EMCL+/Linglab/experiment","no","mono","no","18","no","white","no","yes","768","23","2","C:/Users/sonja/OneDrive/EMCL+/Linglab/experiment/L23HOnnn.csv","IMP","PL","PST","28","Kafkaesque Koffka","3.2.7","0","1","space","1","NA","973","36971","973","NA","2","Мальчики не знали, если друзья принесли торт.","1024","2","48000","-16","experiment","PRF","PL","PST","svo","23","odd","154606","39658","NA","2679","154610","NA","2685","6088","NA","158537","2687","158456","157481","154610","33755","157481","NA","6089","NA","New experiment","0","94864","29","yes","1024","7"
"undefined","undefined","3176.866666666667","3176.866666666667","black","legacy","2distr","0","distr","NA","uniform","undefined","undefined","undefined","27","0","0","0","27","NA","0","0","0","27","2","27","27","27","1","27","0","0","0","Mon Dec 16 22:02:42 2019","The main experiment item","yes","liesli (2).osexp","C:/Users/sonja/OneDrive/EMCL+/Linglab/experiment","no","mono","no","18","no","white","no","yes","768","24","2","C:/Users/sonja/OneDrive/EMCL+/Linglab/experiment/L23HOnnn.csv","PRF","SG","FUT","42","Kafkaesque Koffka","3.2.7","0","5","space","5","NA","442","36971","442","NA","2","Вася купит картошку, если придёт зарплата.","1024","2","48000","-16","experiment","PRF","SG","FUT","vs","23","odd","158931","39658","NA","2679","158934","NA","2685","6088","NA","162335","2687","162255","161811","158934","33755","161811","NA","6089","NA","New experiment","0","95306","30","yes","1024","6"
"undefined","undefined","3089.064516129032","3089.064516129032","black","legacy","4li","0","li","NA","uniform","undefined","undefined","undefined","28","0","0","0","28","NA","0","0","0","28","2","28","28","28","1","28","0","0","0","Mon Dec 16 22:02:42 2019","The main experiment item","yes","liesli (2).osexp","C:/Users/sonja/OneDrive/EMCL+/Linglab/experiment","no","mono","no","18","no","white","no","yes","768","25","2","C:/Users/sonja/OneDrive/EMCL+/Linglab/experiment/L23HOnnn.csv","PRF","SG","PST","7","Kafkaesque Koffka","3.2.7","0","5","space","5","NA","455","36971","455","NA","2","Петя спросил, смотрел ли Вася кино.","1024","2","48000","-16","experiment","IMP","SG","PST","vso","23","odd","162602","39658","NA","2679","162604","NA","2685","6088","NA","165461","2687","165381","164923","162604","33755","164923","NA","6089","NA","New experiment","0","95761","31","yes","1024","6"
"undefined","undefined","3003.78125","3003.78125","black","legacy","17esli","0","esli","NA","uniform","undefined","undefined","undefined","29","0","0","0","29","NA","0","0","0","29","2","29","29","29","1","29","0","0","0","Mon Dec 16 22:02:42 2019","The main experiment item","yes","liesli (2).osexp","C:/Users/sonja/OneDrive/EMCL+/Linglab/experiment","no","mono","no","18","no","white","no","yes","768","26","2","C:/Users/sonja/OneDrive/EMCL+/Linglab/experiment/L23HOnnn.csv","PRF","SG","PST","34","Kafkaesque Koffka","3.2.7","0","1","space","1","NA","360","36971","360","NA","2","Вася не решил, если он купит газету.","1024","2","48000","-16","experiment","PRF","SG","FUT","svo","23","odd","165721","39658","NA","2679","165723","NA","2685","6088","NA","168784","2687","168704","168342","165723","33755","168341","NA","6089","NA","New experiment","0","96121","32","yes","1024","7"
