"acc","accuracy","average_response_time","avg_rt","background","canvas_backend","coding","compensation","condition","conditon","coordinates","correct","correct_next","correct_response_1","count_exp_sequence","count_exp_sequence1","count_exp_sequence2","count_experiment","count_fixation","count_getting_started","count_instr","count_list1","count_list2","count_logger","count_next","count_pause","count_response_1","count_sound","count_start_exp","count_task","count_thanks","count_training1","count_training2","datetime","description","disable_garbage_collection","experiment_file","experiment_path","font_bold","font_family","font_italic","font_size","font_underline","foreground","form_clicks","fullscreen","height","live_row","live_row_training1","logfile","main_asp","main_num","main_tense","num","opensesame_codename","opensesame_version","repeat_cycle","response","response_next","response_response_1","response_thanks","response_time","response_time_next","response_time_response_1","response_time_thanks","round_decimals","sentence_rus","sound_buf_size","sound_channels","sound_freq","sound_sample_size","start","sub_asp","sub_num","sub_tense","sub_wo","subject_nr","subject_parity","time_exp_sequence","time_exp_sequence1","time_exp_sequence2","time_experiment","time_fixation","time_getting_started","time_instr","time_list1","time_list2","time_logger","time_next","time_pause","time_response_1","time_sound","time_start_exp","time_task","time_thanks","time_training1","time_training2","title","total_correct","total_response_time","total_responses","uniform_coordinates","width","word_count"
"undefined","undefined","2429","2429","black","legacy","10distr","0","distr","NA","uniform","undefined","undefined","undefined","0","0","0","0","0","NA","0","0","0","0","2","0","0","0","1","0","0","0","0","Mon Dec 16 15:51:03 2019","The main experiment item","yes","liesli.osexp","C:/Users/annar/OneDrive/Active/Inderect_questions_li_esli/Exp_script","no","mono","no","18","no","white","no","yes","768","0","0","C:/Users/annar/OneDrive/Active/Inderect_questions_li_esli/Exp_script/L23NY.csv","PRF","SG","FUT","50","Kafkaesque Koffka","3.2.7","0","5","space","5","NA","2902","1956","2902","NA","2","Дима проверит почту, если компьютер включится.","1024","2","48000","-16","experiment","PRF","SG","FUT","sv","23","odd","4789","NA","NA","2292","4791","NA","2298","4256","NA","10789","2298","10709","7802","4791","NA","7802","NA","4256","NA","New experiment","0","4858","2","yes","1024","6"
"undefined","undefined","2017.6666666666667","2017.6666666666667","black","legacy","2li","0","li","NA","uniform","undefined","undefined","undefined","1","0","0","0","1","NA","0","0","0","1","2","1","1","1","1","1","0","0","0","Mon Dec 16 15:51:03 2019","The main experiment item","yes","liesli.osexp","C:/Users/annar/OneDrive/Active/Inderect_questions_li_esli/Exp_script","no","mono","no","18","no","white","no","yes","768","1","1","C:/Users/annar/OneDrive/Active/Inderect_questions_li_esli/Exp_script/L23NY.csv","PRF","PL","PST","3","Kafkaesque Koffka","3.2.7","0","5","space","5","NA","1195","1956","1195","NA","2","Гости не сообщили, приедут ли они.","1024","2","48000","-16","experiment","PRF","PL","FUT","vs","23","odd","11050","NA","NA","2292","11052","NA","2298","4256","NA","14713","2298","14633","13434","11052","NA","13433","NA","4256","NA","New experiment","0","6053","3","yes","1024","6"
"undefined","undefined","1685.75","1685.75","black","legacy","12esli","0","esli","NA","uniform","undefined","undefined","undefined","2","0","0","0","2","NA","0","0","0","2","2","2","2","2","1","2","0","0","0","Mon Dec 16 15:51:03 2019","The main experiment item","yes","liesli.osexp","C:/Users/annar/OneDrive/Active/Inderect_questions_li_esli/Exp_script","no","mono","no","18","no","white","no","yes","768","2","2","C:/Users/annar/OneDrive/Active/Inderect_questions_li_esli/Exp_script/L23NY.csv","PRF","SG","PST","24","Kafkaesque Koffka","3.2.7","0","1","space","1","NA","690","1956","690","NA","2","Нина спросила, если дети поели.","1024","2","48000","-16","experiment","PRF","PL","PST","sv","23","odd","15023","NA","NA","2292","15025","NA","2298","4256","NA","18012","2298","17932","17239","15025","NA","17239","NA","4256","NA","New experiment","0","6743","4","yes","1024","5"
"undefined","undefined","8483.166666666666","8483.166666666666","black","legacy","8li","0","li","NA","uniform","undefined","undefined","undefined","3","0","0","0","3","NA","0","0","0","3","2","3","3","3","1","3","0","0","0","Mon Dec 16 15:51:03 2019","The main experiment item","yes","liesli.osexp","C:/Users/annar/OneDrive/Active/Inderect_questions_li_esli/Exp_script","no","mono","no","18","no","white","no","yes","768","0","2","C:/Users/annar/OneDrive/Active/Inderect_questions_li_esli/Exp_script/L23NY.csv","PRF","SG","PST","15","Kafkaesque Koffka","3.2.7","0","4","space","4","NA","1419","42737","1419","NA","2","Миша уточнил, будет ли на обед суп.","1024","2","48000","-16","experiment","IMP","SG","FUT","vos","23","odd","45289","45035","NA","2292","45291","NA","2298","4256","NA","49249","2298","49169","47746","45291","18058","47746","NA","4256","NA","New experiment","0","50899","6","yes","1024","7"
"undefined","undefined","7325.714285714285","7325.714285714285","black","legacy","1li","0","li","NA","uniform","undefined","undefined","undefined","4","0","0","0","4","NA","0","0","0","4","2","4","4","4","1","4","0","0","0","Mon Dec 16 15:51:03 2019","The main experiment item","yes","liesli.osexp","C:/Users/annar/OneDrive/Active/Inderect_questions_li_esli/Exp_script","no","mono","no","18","no","white","no","yes","768","1","2","C:/Users/annar/OneDrive/Active/Inderect_questions_li_esli/Exp_script/L23NY.csv","IMP","SG","PST","1","Kafkaesque Koffka","3.2.7","0","5","space","5","NA","381","42737","381","NA","2","Саша не знала, придут ли дети домой.","1024","2","48000","-16","experiment","PRF","PL","FUT","vso","23","odd","49536","45035","NA","2292","49537","NA","2298","4256","NA","52412","2298","52332","51948","49537","18058","51948","NA","4256","NA","New experiment","0","51280","7","yes","1024","7"
"undefined","undefined","6482.625","6482.625","black","legacy","18esli","0","esli","NA","uniform","undefined","undefined","undefined","5","0","0","0","5","NA","0","0","0","5","2","5","5","5","1","5","0","0","0","Mon Dec 16 15:51:03 2019","The main experiment item","yes","liesli.osexp","C:/Users/annar/OneDrive/Active/Inderect_questions_li_esli/Exp_script","no","mono","no","18","no","white","no","yes","768","2","2","C:/Users/annar/OneDrive/Active/Inderect_questions_li_esli/Exp_script/L23NY.csv","PRF","PL","PST","36","Kafkaesque Koffka","3.2.7","0","1","space","1","NA","581","42737","581","NA","2","Хозяева уточнили, если Маша выключила плиту.","1024","2","48000","-16","experiment","PRF","SG","PST","svo","23","odd","52718","45035","NA","2292","52719","NA","2298","4256","NA","56434","2298","56354","55767","52719","18058","55767","NA","4256","NA","New experiment","0","51861","8","yes","1024","6"
"undefined","undefined","5809.555555555556","5809.555555555556","black","legacy","3distr","0","distr","NA","uniform","undefined","undefined","undefined","6","0","0","0","6","NA","0","0","0","6","2","6","6","6","1","6","0","0","0","Mon Dec 16 15:51:03 2019","The main experiment item","yes","liesli.osexp","C:/Users/annar/OneDrive/Active/Inderect_questions_li_esli/Exp_script","no","mono","no","18","no","white","no","yes","768","3","2","C:/Users/annar/OneDrive/Active/Inderect_questions_li_esli/Exp_script/L23NY.csv","PRF","SG","FUT","43","Kafkaesque Koffka","3.2.7","0","5","space","5","NA","425","42737","425","NA","2","Таня посмотрит новости, если заработает телевизор.","1024","2","48000","-16","experiment","PRF","SG","FUT","vs","23","odd","56774","45035","NA","2292","56776","NA","2298","4256","NA","60474","2298","60394","59964","56776","18058","59964","NA","4256","NA","New experiment","0","52286","9","yes","1024","6"
"undefined","undefined","5389.8","5389.8","black","legacy","1distr","0","distr","NA","uniform","undefined","undefined","undefined","7","0","0","0","7","NA","0","0","0","7","2","7","7","7","1","7","0","0","0","Mon Dec 16 15:51:03 2019","The main experiment item","yes","liesli.osexp","C:/Users/annar/OneDrive/Active/Inderect_questions_li_esli/Exp_script","no","mono","no","18","no","white","no","yes","768","4","2","C:/Users/annar/OneDrive/Active/Inderect_questions_li_esli/Exp_script/L23NY.csv","PRF","SG","FUT","41","Kafkaesque Koffka","3.2.7","0","4","space","4","NA","1612","42737","1612","NA","2","Папа придёт поздно, если вечером будет снег.","1024","2","48000","-16","experiment","IMP","PL","FUT","ovs","23","odd","60764","45035","NA","2292","60766","NA","2298","4256","NA","65202","2298","65121","63504","60766","18058","63504","NA","4256","NA","New experiment","0","53898","10","yes","1024","7"
"undefined","undefined","4942.636363636364","4942.636363636364","black","legacy","15esli","0","esli","NA","uniform","undefined","undefined","undefined","8","0","0","0","8","NA","0","0","0","8","2","8","8","8","1","8","0","0","0","Mon Dec 16 15:51:03 2019","The main experiment item","yes","liesli.osexp","C:/Users/annar/OneDrive/Active/Inderect_questions_li_esli/Exp_script","no","mono","no","18","no","white","no","yes","768","5","2","C:/Users/annar/OneDrive/Active/Inderect_questions_li_esli/Exp_script/L23NY.csv","PRF","SG","PST","30","Kafkaesque Koffka","3.2.7","0","1","space","1","NA","471","42737","471","NA","2","Учитель поинтересовался, если ученики выполнили задание.","1024","2","48000","-16","experiment","PRF","PL","PST","svo","23","odd","65568","45035","NA","2292","65570","NA","2298","4256","NA","69680","2298","69600","69126","65570","18058","69126","NA","4256","NA","New experiment","0","54369","11","yes","1024","6"
"undefined","undefined","4606.75","4606.75","black","legacy","3li","0","li","NA","uniform","undefined","undefined","undefined","9","0","0","0","9","NA","0","0","0","9","2","9","9","9","1","9","0","0","0","Mon Dec 16 15:51:03 2019","The main experiment item","yes","liesli.osexp","C:/Users/annar/OneDrive/Active/Inderect_questions_li_esli/Exp_script","no","mono","no","18","no","white","no","yes","768","6","2","C:/Users/annar/OneDrive/Active/Inderect_questions_li_esli/Exp_script/L23NY.csv","IMP","PL","PST","5","Kafkaesque Koffka","3.2.7","0","4","space","4","NA","912","42737","912","NA","2","Туристы сомневались, будет ли вечером дождь.","1024","2","48000","-16","experiment","IMP","SG","FUT","vs","23","odd","69991","45035","NA","2292","69993","NA","2298","4256","NA","73731","2298","73651","72735","69993","18058","72735","NA","4256","NA","New experiment","0","55281","12","yes","1024","6"
"undefined","undefined","4280","4280","black","legacy","6distr","0","distr","NA","uniform","undefined","undefined","undefined","10","0","0","0","10","NA","0","0","0","10","2","10","10","10","1","10","0","0","0","Mon Dec 16 15:51:03 2019","The main experiment item","yes","liesli.osexp","C:/Users/annar/OneDrive/Active/Inderect_questions_li_esli/Exp_script","no","mono","no","18","no","white","no","yes","768","7","2","C:/Users/annar/OneDrive/Active/Inderect_questions_li_esli/Exp_script/L23NY.csv","PRF","SG","FUT","46","Kafkaesque Koffka","3.2.7","0","5","space","5","NA","359","42737","359","NA","2","Женя пойдёт гулять, если его позовут.","1024","2","48000","-16","experiment","PRF","SG","FUT","ov","23","odd","74017","45035","NA","2292","74019","NA","2298","4256","NA","76976","2298","76895","76534","74019","18058","76534","NA","4256","NA","New experiment","0","55640","13","yes","1024","6"
"undefined","undefined","4013.5","4013.5","black","legacy","6esli","0","esli","NA","uniform","undefined","undefined","undefined","11","0","0","0","11","NA","0","0","0","11","2","11","11","11","1","11","0","0","0","Mon Dec 16 15:51:03 2019","The main experiment item","yes","liesli.osexp","C:/Users/annar/OneDrive/Active/Inderect_questions_li_esli/Exp_script","no","mono","no","18","no","white","no","yes","768","8","2","C:/Users/annar/OneDrive/Active/Inderect_questions_li_esli/Exp_script/L23NY.csv","PRF","SG","PST","12","Kafkaesque Koffka","3.2.7","0","2","space","2","NA","549","42737","549","NA","2","Лена задумалась, если ей понравились подарки.","1024","2","48000","-16","experiment","PRF","PL","PST","ovs","23","odd","77298","45035","NA","2292","77299","NA","2298","4256","NA","80876","2298","80796","80245","77299","18058","80245","NA","4256","NA","New experiment","0","56189","14","yes","1024","6"
"undefined","undefined","3766.9333333333334","3766.9333333333334","black","legacy","20li","0","li","NA","uniform","undefined","undefined","undefined","12","0","0","0","12","NA","0","0","0","12","2","12","12","12","1","12","0","0","0","Mon Dec 16 15:51:03 2019","The main experiment item","yes","liesli.osexp","C:/Users/annar/OneDrive/Active/Inderect_questions_li_esli/Exp_script","no","mono","no","18","no","white","no","yes","768","9","2","C:/Users/annar/OneDrive/Active/Inderect_questions_li_esli/Exp_script/L23NY.csv","PRF","SG","PST","39","Kafkaesque Koffka","3.2.7","0","5","space","5","NA","315","42737","315","NA","2","Коля задумался, остались ли в доме конфеты","1024","2","48000","-16","experiment","PRF","PL","PST","vos","23","odd","81243","45035","NA","2292","81245","NA","2298","4256","NA","84634","2298","84554","84237","81245","18058","84237","NA","4256","NA","New experiment","0","56504","15","yes","1024","7"
"undefined","undefined","3635.1875","3635.1875","black","legacy","5li","0","li","NA","uniform","undefined","undefined","undefined","13","0","0","0","13","NA","0","0","0","13","2","13","13","13","1","13","0","0","0","Mon Dec 16 15:51:03 2019","The main experiment item","yes","liesli.osexp","C:/Users/annar/OneDrive/Active/Inderect_questions_li_esli/Exp_script","no","mono","no","18","no","white","no","yes","768","10","2","C:/Users/annar/OneDrive/Active/Inderect_questions_li_esli/Exp_script/L23NY.csv","PRF","PL","PST","9","Kafkaesque Koffka","3.2.7","0","4","space","4","NA","1659","42737","1659","NA","2","Ученики забыли, будут ли завтра занятия.","1024","2","48000","-16","experiment","IMP","PL","FUT","vs","23","odd","84953","45035","NA","2292","84955","NA","2298","4256","NA","89498","2298","89418","87756","84955","18058","87756","NA","4256","NA","New experiment","0","58163","16","yes","1024","6"
"undefined","undefined","3476.9411764705883","3476.9411764705883","black","legacy","11esli","0","esli","NA","uniform","undefined","undefined","undefined","14","0","0","0","14","NA","0","0","0","14","2","14","14","14","1","14","0","0","0","Mon Dec 16 15:51:03 2019","The main experiment item","yes","liesli.osexp","C:/Users/annar/OneDrive/Active/Inderect_questions_li_esli/Exp_script","no","mono","no","18","no","white","no","yes","768","11","2","C:/Users/annar/OneDrive/Active/Inderect_questions_li_esli/Exp_script/L23NY.csv","IMP","PL","PST","22","Kafkaesque Koffka","3.2.7","0","2","space","2","NA","945","42737","945","NA","2","Внуки узнавали, если летом приедет бабушка. ","1024","2","48000","-16","experiment","PRF","SG","FUT","ovs","23","odd","89825","45035","NA","2292","89827","NA","2298","4256","NA","93834","2298","93754","92804","89827","18058","92804","NA","4256","NA","New experiment","0","59108","17","yes","1024","6"
"undefined","undefined","3304","3304","black","legacy","9li","0","li","NA","uniform","undefined","undefined","undefined","15","0","0","0","15","NA","0","0","0","15","2","15","15","15","1","15","0","0","0","Mon Dec 16 15:51:03 2019","The main experiment item","yes","liesli.osexp","C:/Users/annar/OneDrive/Active/Inderect_questions_li_esli/Exp_script","no","mono","no","18","no","white","no","yes","768","12","2","C:/Users/annar/OneDrive/Active/Inderect_questions_li_esli/Exp_script/L23NY.csv","PRF","SG","PST","17","Kafkaesque Koffka","3.2.7","0","5","space","5","NA","364","42737","364","NA","2","Катя проверила, не забыла ли она перчатки.","1024","2","48000","-16","experiment","PRF","SG","PST","vso","23","odd","94125","45035","NA","2292","94127","NA","2298","4256","NA","97224","2298","97144","96776","94127","18058","96776","NA","4256","NA","New experiment","0","59472","18","yes","1024","7"
"undefined","undefined","3161.5263157894738","3161.5263157894738","black","legacy","19esli","0","esli","NA","uniform","undefined","undefined","undefined","16","0","0","0","16","NA","0","0","0","16","2","16","16","16","1","16","0","0","0","Mon Dec 16 15:51:03 2019","The main experiment item","yes","liesli.osexp","C:/Users/annar/OneDrive/Active/Inderect_questions_li_esli/Exp_script","no","mono","no","18","no","white","no","yes","768","13","2","C:/Users/annar/OneDrive/Active/Inderect_questions_li_esli/Exp_script/L23NY.csv","PRF","PL","PST","38","Kafkaesque Koffka","3.2.7","0","2","space","2","NA","597","42737","597","NA","2","Соседи не сказали, если они полили цветы.","1024","2","48000","-16","experiment","PRF","PL","PST","svo","23","odd","97532","45035","NA","2292","97534","NA","2298","4256","NA","100995","2298","100915","100316","97534","18058","100315","NA","4256","NA","New experiment","0","60069","19","yes","1024","7"
"undefined","undefined","3055.55","3055.55","black","legacy","8distr","0","distr","NA","uniform","undefined","undefined","undefined","17","0","0","0","17","NA","0","0","0","17","2","17","17","17","1","17","0","0","0","Mon Dec 16 15:51:03 2019","The main experiment item","yes","liesli.osexp","C:/Users/annar/OneDrive/Active/Inderect_questions_li_esli/Exp_script","no","mono","no","18","no","white","no","yes","768","14","2","C:/Users/annar/OneDrive/Active/Inderect_questions_li_esli/Exp_script/L23NY.csv","PRF","SG","FUT","48","Kafkaesque Koffka","3.2.7","0","5","space","5","NA","1042","42737","1042","NA","2","Мама съест пирожное, если оно будет вкусным.","1024","2","48000","-16","experiment","IMP","SG","FUT","sv","23","odd","101324","45035","NA","2292","101326","NA","2298","4256","NA","105441","2298","105361","104315","101326","18058","104315","NA","4256","NA","New experiment","0","61111","20","yes","1024","7"
"undefined","undefined","3020.095238095238","3020.095238095238","black","legacy","4distr","0","distr","NA","uniform","undefined","undefined","undefined","18","0","0","0","18","NA","0","0","0","18","2","18","18","18","1","18","0","0","0","Mon Dec 16 15:51:03 2019","The main experiment item","yes","liesli.osexp","C:/Users/annar/OneDrive/Active/Inderect_questions_li_esli/Exp_script","no","mono","no","18","no","white","no","yes","768","15","2","C:/Users/annar/OneDrive/Active/Inderect_questions_li_esli/Exp_script/L23NY.csv","PRF","SG","FUT","44","Kafkaesque Koffka","3.2.7","0","4","space","4","NA","2311","42737","2311","NA","2","Витя помоет посуду, если доделает уроки.","1024","2","48000","-16","experiment","PRF","SG","FUT","(s)vo","23","odd","105755","45035","NA","2292","105756","NA","2298","4256","NA","111092","2298","111012","108696","105756","18058","108696","NA","4256","NA","New experiment","0","63422","21","yes","1024","6"
"undefined","undefined","2897.6363636363635","2897.6363636363635","black","legacy","10li","0","li","NA","uniform","undefined","undefined","undefined","19","0","0","0","19","NA","0","0","0","19","2","19","19","19","1","19","0","0","0","Mon Dec 16 15:51:03 2019","The main experiment item","yes","liesli.osexp","C:/Users/annar/OneDrive/Active/Inderect_questions_li_esli/Exp_script","no","mono","no","18","no","white","no","yes","768","16","2","C:/Users/annar/OneDrive/Active/Inderect_questions_li_esli/Exp_script/L23NY.csv","IMP","PL","PST","19","Kafkaesque Koffka","3.2.7","0","5","space","5","NA","326","42737","326","NA","2","Они интересовались, написали ли журналисты про выборы.","1024","2","48000","-16","experiment","PRF","PL","PST","vso","23","odd","111470","45035","NA","2292","111472","NA","2298","4256","NA","115133","2298","115053","114724","111472","18058","114724","NA","4256","NA","New experiment","0","63748","22","yes","1024","7"
"undefined","undefined","2824.695652173913","2824.695652173913","black","legacy","9distr","0","distr","NA","uniform","undefined","undefined","undefined","20","0","0","0","20","NA","0","0","0","20","2","20","20","20","1","20","0","0","0","Mon Dec 16 15:51:03 2019","The main experiment item","yes","liesli.osexp","C:/Users/annar/OneDrive/Active/Inderect_questions_li_esli/Exp_script","no","mono","no","18","no","white","no","yes","768","17","2","C:/Users/annar/OneDrive/Active/Inderect_questions_li_esli/Exp_script/L23NY.csv","PRF","SG","FUT","49","Kafkaesque Koffka","3.2.7","0","5","space","5","NA","1220","42737","1220","NA","2","Маша позвонит другу, если он будет дома.","1024","2","48000","-16","experiment","IMP","SG","FUT","svo","23","odd","115462","45035","NA","2292","115464","NA","2298","4256","NA","119580","2298","119500","118275","115464","18058","118275","NA","4256","NA","New experiment","0","64968","23","yes","1024","7"
"undefined","undefined","2732.625","2732.625","black","legacy","13esli","0","esli","NA","uniform","undefined","undefined","undefined","21","0","0","0","21","NA","0","0","0","21","2","21","21","21","1","21","0","0","0","Mon Dec 16 15:51:03 2019","The main experiment item","yes","liesli.osexp","C:/Users/annar/OneDrive/Active/Inderect_questions_li_esli/Exp_script","no","mono","no","18","no","white","no","yes","768","18","2","C:/Users/annar/OneDrive/Active/Inderect_questions_li_esli/Exp_script/L23NY.csv","PRF","SG","PST","26","Kafkaesque Koffka","3.2.7","0","1","space","1","NA","615","42737","615","NA","2","Витя забыл, если во вторник будет игра.","1024","2","48000","-16","experiment","IMP","SG","FUT","ovs","23","odd","119867","45035","NA","2292","119869","NA","2298","4256","NA","123104","2298","123024","122407","119869","18058","122407","NA","4256","NA","New experiment","0","65583","24","yes","1024","7"
"undefined","undefined","2641.76","2641.76","black","legacy","7li","0","li","NA","uniform","undefined","undefined","undefined","22","0","0","0","22","NA","0","0","0","22","2","22","22","22","1","22","0","0","0","Mon Dec 16 15:51:03 2019","The main experiment item","yes","liesli.osexp","C:/Users/annar/OneDrive/Active/Inderect_questions_li_esli/Exp_script","no","mono","no","18","no","white","no","yes","768","19","2","C:/Users/annar/OneDrive/Active/Inderect_questions_li_esli/Exp_script/L23NY.csv","PRF","PL","PST","13","Kafkaesque Koffka","3.2.7","0","5","space","5","NA","461","42737","461","NA","2","Братья не сказали, покормили ли они собаку.","1024","2","48000","-16","experiment","PRF","PL","PST","vso","23","odd","123437","45035","NA","2292","123439","NA","2298","4256","NA","126934","2298","126854","126376","123439","18058","126376","NA","4256","NA","New experiment","0","66044","25","yes","1024","7"
"undefined","undefined","2564.6153846153848","2564.6153846153848","black","legacy","7distr","0","distr","NA","uniform","undefined","undefined","undefined","23","0","0","0","23","NA","0","0","0","23","2","23","23","23","1","23","0","0","0","Mon Dec 16 15:51:03 2019","The main experiment item","yes","liesli.osexp","C:/Users/annar/OneDrive/Active/Inderect_questions_li_esli/Exp_script","no","mono","no","18","no","white","no","yes","768","20","2","C:/Users/annar/OneDrive/Active/Inderect_questions_li_esli/Exp_script/L23NY.csv","PRF","SG","FUT","47","Kafkaesque Koffka","3.2.7","0","5","space","5","NA","636","42737","636","NA","2","Рита останется дома, если сильно заболеет.","1024","2","48000","-16","experiment","PRF","SG","FUT","(s)ov","23","odd","127246","45035","NA","2292","127248","NA","2298","4256","NA","130918","2298","130838","130194","127248","18058","130194","NA","4256","NA","New experiment","0","66680","26","yes","1024","6"
"undefined","undefined","2481.4814814814813","2481.4814814814813","black","legacy","16esli","0","esli","NA","uniform","undefined","undefined","undefined","24","0","0","0","24","NA","0","0","0","24","2","24","24","24","1","24","0","0","0","Mon Dec 16 15:51:03 2019","The main experiment item","yes","liesli.osexp","C:/Users/annar/OneDrive/Active/Inderect_questions_li_esli/Exp_script","no","mono","no","18","no","white","no","yes","768","21","2","C:/Users/annar/OneDrive/Active/Inderect_questions_li_esli/Exp_script/L23NY.csv","IMP","PL","PST","32","Kafkaesque Koffka","3.2.7","0","1","space","1","NA","320","42737","320","NA","2","Родители сомневалась, если Даня помыл посуду.","1024","2","48000","-16","experiment","PRF","SG","PST","svo","23","odd","131234","45035","NA","2292","131236","NA","2298","4256","NA","134633","2298","134553","134227","131236","18058","134227","NA","4256","NA","New experiment","0","67000","27","yes","1024","6"
"undefined","undefined","2427.3571428571427","2427.3571428571427","black","legacy","5distr","0","distr","NA","uniform","undefined","undefined","undefined","25","0","0","0","25","NA","0","0","0","25","2","25","25","25","1","25","0","0","0","Mon Dec 16 15:51:03 2019","The main experiment item","yes","liesli.osexp","C:/Users/annar/OneDrive/Active/Inderect_questions_li_esli/Exp_script","no","mono","no","18","no","white","no","yes","768","22","2","C:/Users/annar/OneDrive/Active/Inderect_questions_li_esli/Exp_script/L23NY.csv","PRF","SG","FUT","45","Kafkaesque Koffka","3.2.7","0","5","space","5","NA","966","42737","966","NA","2","Саша доест яблоко, если оно будет сладким.","1024","2","48000","-16","experiment","IMP","SG","FUT","sv","23","odd","134954","45035","NA","2292","134956","NA","2298","4256","NA","138986","2298","138906","137937","134956","18058","137937","NA","4256","NA","New experiment","0","67966","28","yes","1024","7"
"undefined","undefined","2355.7241379310344","2355.7241379310344","black","legacy","14esli","0","esli","NA","uniform","undefined","undefined","undefined","26","0","0","0","26","NA","0","0","0","26","2","26","26","26","1","26","0","0","0","Mon Dec 16 15:51:03 2019","The main experiment item","yes","liesli.osexp","C:/Users/annar/OneDrive/Active/Inderect_questions_li_esli/Exp_script","no","mono","no","18","no","white","no","yes","768","23","2","C:/Users/annar/OneDrive/Active/Inderect_questions_li_esli/Exp_script/L23NY.csv","IMP","PL","PST","28","Kafkaesque Koffka","3.2.7","0","1","space","1","NA","350","42737","350","NA","2","Мальчики не знали, если друзья принесли торт.","1024","2","48000","-16","experiment","PRF","PL","PST","svo","23","odd","139306","45035","NA","2292","139308","NA","2298","4256","NA","142613","2298","142533","142176","139308","18058","142175","NA","4256","NA","New experiment","0","68316","29","yes","1024","7"
"undefined","undefined","2325.1","2325.1","black","legacy","2distr","0","distr","NA","uniform","undefined","undefined","undefined","27","0","0","0","27","NA","0","0","0","27","2","27","27","27","1","27","0","0","0","Mon Dec 16 15:51:03 2019","The main experiment item","yes","liesli.osexp","C:/Users/annar/OneDrive/Active/Inderect_questions_li_esli/Exp_script","no","mono","no","18","no","white","no","yes","768","24","2","C:/Users/annar/OneDrive/Active/Inderect_questions_li_esli/Exp_script/L23NY.csv","PRF","SG","FUT","42","Kafkaesque Koffka","3.2.7","0","4","space","4","NA","1437","42737","1437","NA","2","Вася купит картошку, если придёт зарплата.","1024","2","48000","-16","experiment","PRF","SG","FUT","vs","23","odd","142929","45035","NA","2292","142931","NA","2298","4256","NA","147328","2298","147248","145805","142931","18058","145805","NA","4256","NA","New experiment","0","69753","30","yes","1024","6"
"undefined","undefined","2270.548387096774","2270.548387096774","black","legacy","4li","0","li","NA","uniform","undefined","undefined","undefined","28","0","0","0","28","NA","0","0","0","28","2","28","28","28","1","28","0","0","0","Mon Dec 16 15:51:03 2019","The main experiment item","yes","liesli.osexp","C:/Users/annar/OneDrive/Active/Inderect_questions_li_esli/Exp_script","no","mono","no","18","no","white","no","yes","768","25","2","C:/Users/annar/OneDrive/Active/Inderect_questions_li_esli/Exp_script/L23NY.csv","PRF","SG","PST","7","Kafkaesque Koffka","3.2.7","0","5","space","5","NA","634","42737","634","NA","2","Петя спросил, смотрел ли Вася кино.","1024","2","48000","-16","experiment","IMP","SG","PST","vso","23","odd","147605","45035","NA","2292","147607","NA","2298","4256","NA","150634","2298","150554","149916","147607","18058","149916","NA","4256","NA","New experiment","0","70387","31","yes","1024","6"
"undefined","undefined","2223.28125","2223.28125","black","legacy","17esli","0","esli","NA","uniform","undefined","undefined","undefined","29","0","0","0","29","NA","0","0","0","29","2","29","29","29","1","29","0","0","0","Mon Dec 16 15:51:03 2019","The main experiment item","yes","liesli.osexp","C:/Users/annar/OneDrive/Active/Inderect_questions_li_esli/Exp_script","no","mono","no","18","no","white","no","yes","768","26","2","C:/Users/annar/OneDrive/Active/Inderect_questions_li_esli/Exp_script/L23NY.csv","PRF","SG","PST","34","Kafkaesque Koffka","3.2.7","0","2","space","2","NA","758","42737","758","NA","2","Вася не решил, если он купит газету.","1024","2","48000","-16","experiment","PRF","SG","FUT","svo","23","odd","150977","45035","NA","2292","150979","NA","2298","4256","NA","154430","2298","154350","153586","150979","18058","153586","NA","4256","NA","New experiment","0","71145","32","yes","1024","7"
