"acc","accuracy","average_response_time","avg_rt","background","canvas_backend","coding","compensation","condition","conditon","coordinates","correct","correct_next","correct_response_1","count_exp_sequence","count_exp_sequence1","count_exp_sequence2","count_experiment","count_fixation","count_getting_started","count_instr","count_list1","count_list2","count_logger","count_next","count_pause","count_response_1","count_sound","count_start_exp","count_task","count_thanks","count_training1","count_training2","datetime","description","disable_garbage_collection","experiment_file","experiment_path","font_bold","font_family","font_italic","font_size","font_underline","foreground","form_clicks","fullscreen","height","live_row","live_row_training2","logfile","main_asp","main_num","main_tense","num","opensesame_codename","opensesame_version","repeat_cycle","response","response_next","response_response_1","response_thanks","response_time","response_time_next","response_time_response_1","response_time_thanks","round_decimals","sentence_rus","sound_buf_size","sound_channels","sound_freq","sound_sample_size","start","sub_asp","sub_num","sub_tense","sub_wo","subject_nr","subject_parity","time_exp_sequence","time_exp_sequence1","time_exp_sequence2","time_experiment","time_fixation","time_getting_started","time_instr","time_list1","time_list2","time_logger","time_next","time_pause","time_response_1","time_sound","time_start_exp","time_task","time_thanks","time_training1","time_training2","title","total_correct","total_response_time","total_responses","uniform_coordinates","width","word_count"
"undefined","undefined","883279","883279","black","legacy","10distr","0","distr","NA","uniform","undefined","undefined","undefined","0","0","0","0","0","NA","0","0","0","0","2","0","0","0","1","0","0","0","0","Sun Jan 12 22:52:52 2020","The main experiment item","yes","liesli.osexp","/Users/olgavorontsova/Downloads","no","mono","no","18","no","white","no","yes","768","0","0","/Users/olgavorontsova/Downloads/subject-36.csv","PRF","SG","FUT","50","Kafkaesque Koffka","3.2.8","0","2","space","2","NA","13679","1752879","13679","NA","2","Дима проверит почту, если компьютер включится.","1024","2","48000","-16","experiment","PRF","SG","FUT","sv","36","even","1756926","NA","NA","3599","1756938","NA","3619","NA","1756513","1773740","3619","1773660","1759966","1756939","NA","1759966","NA","NA","1756513","New experiment","0","1766558","2","yes","1024","6"
"undefined","undefined","594097.333333","594097.333333","black","legacy","2esli","0","esli","NA","uniform","undefined","undefined","undefined","1","0","0","0","1","NA","0","0","0","1","2","1","1","1","1","1","0","0","0","Sun Jan 12 22:52:52 2020","The main experiment item","yes","liesli.osexp","/Users/olgavorontsova/Downloads","no","mono","no","18","no","white","no","yes","768","1","1","/Users/olgavorontsova/Downloads/subject-36.csv","PRF","PL","PST","4","Kafkaesque Koffka","3.2.8","0","1","space","1","NA","15734","1752879","15734","NA","2","Гости не сообщили, если они приедут.","1024","2","48000","-16","experiment","PRF","PL","FUT","so","36","even","1774160","NA","NA","3599","1774172","NA","3619","NA","1756513","1792620","3619","1792540","1776792","1774172","NA","1776792","NA","NA","1756513","New experiment","0","1782292","3","yes","1024","6"
"undefined","undefined","447033.25","447033.25","black","legacy","12li","0","li","NA","uniform","undefined","undefined","undefined","2","0","0","0","2","NA","0","0","0","2","2","2","2","2","1","2","0","0","0","Sun Jan 12 22:52:52 2020","The main experiment item","yes","liesli.osexp","/Users/olgavorontsova/Downloads","no","mono","no","18","no","white","no","yes","768","2","2","/Users/olgavorontsova/Downloads/subject-36.csv","PRF","SG","PST","23","Kafkaesque Koffka","3.2.8","0","5","space","5","NA","5841","1752879","5841","NA","2","Нина спросила, поели ли дети.","1024","2","48000","-16","experiment","PRF","PL","PST","vos","36","even","1792994","NA","NA","3599","1793005","NA","3619","NA","1756513","1801145","3619","1801065","1795210","1793006","NA","1795210","NA","NA","1756513","New experiment","0","1788133","4","yes","1024","5"
"undefined","undefined","599525.833333","599525.833333","black","legacy","8esli","0","li","esli","uniform","undefined","undefined","undefined","3","0","0","0","3","NA","0","0","0","3","2","3","3","3","1","3","0","0","0","Sun Jan 12 22:52:52 2020","The main experiment item","yes","liesli.osexp","/Users/olgavorontsova/Downloads","no","mono","no","18","no","white","no","yes","768","0","2","/Users/olgavorontsova/Downloads/subject-36.csv","PRF","SG","PST","16","Kafkaesque Koffka","3.2.8","0","1","space","1","NA","3654","1805368","3654","NA","2","Миша уточнил, если на обед будет суп.","1024","2","48000","-16","experiment","IMP","SG","FUT","ovs","36","even","1809348","NA","1808989","3599","1809361","NA","3619","NA","1756513","1815692","3619","1815612","1811944","1809361","1801201","1811944","NA","NA","1756513","New experiment","0","3597155","6","yes","1024","7"
"undefined","undefined","514547","514547","black","legacy","1esli","0","li","esli","uniform","undefined","undefined","undefined","4","0","0","0","4","NA","0","0","0","4","2","4","4","4","1","4","0","0","0","Sun Jan 12 22:52:52 2020","The main experiment item","yes","liesli.osexp","/Users/olgavorontsova/Downloads","no","mono","no","18","no","white","no","yes","768","1","2","/Users/olgavorontsova/Downloads/subject-36.csv","IMP","SG","PST","2","Kafkaesque Koffka","3.2.8","0","1","space","1","NA","4674","1805368","4674","NA","2","Саша не знала, если дети придут домой.","1024","2","48000","-16","experiment","PRF","PL","FUT","svo","36","even","1816110","NA","1808989","3599","1816122","NA","3619","NA","1756513","1823666","3619","1823586","1818898","1816122","1801201","1818898","NA","NA","1756513","New experiment","0","3601829","7","yes","1024","7"
"undefined","undefined","451054.375","451054.375","black","legacy","18li","0","li","li","uniform","undefined","undefined","undefined","5","0","0","0","5","NA","0","0","0","5","2","5","5","5","1","5","0","0","0","Sun Jan 12 22:52:52 2020","The main experiment item","yes","liesli.osexp","/Users/olgavorontsova/Downloads","no","mono","no","18","no","white","no","yes","768","2","2","/Users/olgavorontsova/Downloads/subject-36.csv","PRF","PL","PST","35","Kafkaesque Koffka","3.2.8","0","5","space","5","NA","6606","1805368","6606","NA","2","Хозяева уточнили, выключила ли Маша плиту.","1024","2","48000","-16","experiment","PRF","SG","PST","vso","36","even","1824106","NA","1808989","3599","1824119","NA","3619","NA","1756513","1833875","3619","1833795","1827175","1824119","1801201","1827175","NA","NA","1756513","New experiment","0","3608435","8","yes","1024","6"
"undefined","undefined","401214.444444","401214.444444","black","legacy","3distr","0","li","distr","uniform","undefined","undefined","undefined","6","0","0","0","6","NA","0","0","0","6","2","6","6","6","1","6","0","0","0","Sun Jan 12 22:52:52 2020","The main experiment item","yes","liesli.osexp","/Users/olgavorontsova/Downloads","no","mono","no","18","no","white","no","yes","768","3","2","/Users/olgavorontsova/Downloads/subject-36.csv","PRF","SG","FUT","43","Kafkaesque Koffka","3.2.8","0","5","space","5","NA","2495","1805368","2495","NA","2","Таня посмотрит новости, если заработает телевизор.","1024","2","48000","-16","experiment","PRF","SG","FUT","vs","36","even","1834322","NA","1808989","3599","1834335","NA","3619","NA","1756513","1840136","3619","1840056","1837545","1834335","1801201","1837545","NA","NA","1756513","New experiment","0","3610930","9","yes","1024","6"
"undefined","undefined","364552.3","364552.3","black","legacy","1distr","0","li","distr","uniform","undefined","undefined","undefined","7","0","0","0","7","NA","0","0","0","7","2","7","7","7","1","7","0","0","0","Sun Jan 12 22:52:52 2020","The main experiment item","yes","liesli.osexp","/Users/olgavorontsova/Downloads","no","mono","no","18","no","white","no","yes","768","4","2","/Users/olgavorontsova/Downloads/subject-36.csv","PRF","SG","FUT","41","Kafkaesque Koffka","3.2.8","0","4","space","4","NA","34593","1805368","34593","NA","2","Папа придёт поздно, если вечером будет снег.","1024","2","48000","-16","experiment","IMP","PL","FUT","ovs","36","even","1840609","NA","1808989","3599","1840623","NA","3619","NA","1756513","1878072","3619","1877992","1843385","1840623","1801201","1843384","NA","NA","1756513","New experiment","0","3645523","10","yes","1024","7"
"undefined","undefined","331601.545455","331601.545455","black","legacy","15li","0","li","li","uniform","undefined","undefined","undefined","8","0","0","0","8","NA","0","0","0","8","2","8","8","8","1","8","0","0","0","Sun Jan 12 22:52:52 2020","The main experiment item","yes","liesli.osexp","/Users/olgavorontsova/Downloads","no","mono","no","18","no","white","no","yes","768","5","2","/Users/olgavorontsova/Downloads/subject-36.csv","PRF","SG","PST","29","Kafkaesque Koffka","3.2.8","0","5","space","5","NA","2094","1805368","2094","NA","2","Учитель поинтересовался, выполнили ли ученики задание.","1024","2","48000","-16","experiment","PRF","PL","PST","vso","36","even","1878551","NA","1808989","3599","1878563","NA","3619","NA","1756513","1884443","3619","1884363","1882255","1878564","1801201","1882255","NA","NA","1756513","New experiment","0","3647617","11","yes","1024","6"
"undefined","undefined","304069.333333","304069.333333","black","legacy","3esli","0","li","esli","uniform","undefined","undefined","undefined","9","0","0","0","9","NA","0","0","0","9","2","9","9","9","1","9","0","0","0","Sun Jan 12 22:52:52 2020","The main experiment item","yes","liesli.osexp","/Users/olgavorontsova/Downloads","no","mono","no","18","no","white","no","yes","768","6","2","/Users/olgavorontsova/Downloads/subject-36.csv","IMP","PL","PST","6","Kafkaesque Koffka","3.2.8","0","1","space","1","NA","1215","1805368","1215","NA","2","Туристы сомневались, если вечером будет дождь.","1024","2","48000","-16","experiment","IMP","SG","FUT","vs","36","even","1884872","NA","1808989","3599","1884884","NA","3619","NA","1756513","1889139","3619","1889059","1887829","1884884","1801201","1887829","NA","NA","1756513","New experiment","0","3648832","12","yes","1024","6"
"undefined","undefined","280928.846154","280928.846154","black","legacy","6distr","0","li","distr","uniform","undefined","undefined","undefined","10","0","0","0","10","NA","0","0","0","10","2","10","10","10","1","10","0","0","0","Sun Jan 12 22:52:52 2020","The main experiment item","yes","liesli.osexp","/Users/olgavorontsova/Downloads","no","mono","no","18","no","white","no","yes","768","7","2","/Users/olgavorontsova/Downloads/subject-36.csv","PRF","SG","FUT","46","Kafkaesque Koffka","3.2.8","0","5","space","5","NA","3243","1805368","3243","NA","2","Женя пойдёт гулять, если его позовут.","1024","2","48000","-16","experiment","PRF","SG","FUT","ov","36","even","1889541","NA","1808989","3599","1889554","NA","3619","NA","1756513","1895403","3619","1895323","1892066","1889554","1801201","1892065","NA","NA","1756513","New experiment","0","3652075","13","yes","1024","6"
"undefined","undefined","261251.214286","261251.214286","black","legacy","6li","0","li","li","uniform","undefined","undefined","undefined","11","0","0","0","11","NA","0","0","0","11","2","11","11","11","1","11","0","0","0","Sun Jan 12 22:52:52 2020","The main experiment item","yes","liesli.osexp","/Users/olgavorontsova/Downloads","no","mono","no","18","no","white","no","yes","768","8","2","/Users/olgavorontsova/Downloads/subject-36.csv","PRF","SG","PST","11","Kafkaesque Koffka","3.2.8","0","2","space","2","NA","5442","1805368","5442","NA","2","Лена задумалась, понравились ли ей подарки.","1024","2","48000","-16","experiment","PRF","PL","PST","vos","36","even","1895819","NA","1808989","3599","1895832","NA","3619","NA","1756513","1904175","3619","1904095","1898638","1895832","1801201","1898638","NA","NA","1756513","New experiment","0","3657517","14","yes","1024","6"
"undefined","undefined","243890.6","243890.6","black","legacy","20esli","0","li","esli","uniform","undefined","undefined","undefined","12","0","0","0","12","NA","0","0","0","12","2","12","12","12","1","12","0","0","0","Sun Jan 12 22:52:52 2020","The main experiment item","yes","liesli.osexp","/Users/olgavorontsova/Downloads","no","mono","no","18","no","white","no","yes","768","9","2","/Users/olgavorontsova/Downloads/subject-36.csv","PRF","SG","PST","40","Kafkaesque Koffka","3.2.8","0","1","space","1","NA","842","1805368","842","NA","2","Коля задумался, если в доме остались конфеты.","1024","2","48000","-16","experiment","PRF","PL","PST","ovs","36","even","1904612","NA","1808989","3599","1904625","NA","3619","NA","1756513","1908514","3619","1908434","1907578","1904625","1801201","1907578","NA","NA","1756513","New experiment","0","3658359","15","yes","1024","7"
"undefined","undefined","228776.3125","228776.3125","black","legacy","5esli","0","li","esli","uniform","undefined","undefined","undefined","13","0","0","0","13","NA","0","0","0","13","2","13","13","13","1","13","0","0","0","Sun Jan 12 22:52:52 2020","The main experiment item","yes","liesli.osexp","/Users/olgavorontsova/Downloads","no","mono","no","18","no","white","no","yes","768","10","2","/Users/olgavorontsova/Downloads/subject-36.csv","PRF","PL","PST","10","Kafkaesque Koffka","3.2.8","0","1","space","1","NA","2062","1805368","2062","NA","2","Ученики забыли, если завтра будут занятия.","1024","2","48000","-16","experiment","IMP","PL","FUT","vo","36","even","1908946","NA","1808989","3599","1908959","NA","3619","NA","1756513","1914018","3619","1913938","1911862","1908959","1801201","1911862","NA","NA","1756513","New experiment","0","3660421","16","yes","1024","6"
"undefined","undefined","215781.411765","215781.411765","black","legacy","11li","0","li","li","uniform","undefined","undefined","undefined","14","0","0","0","14","NA","0","0","0","14","2","14","14","14","1","14","0","0","0","Sun Jan 12 22:52:52 2020","The main experiment item","yes","liesli.osexp","/Users/olgavorontsova/Downloads","no","mono","no","18","no","white","no","yes","768","11","2","/Users/olgavorontsova/Downloads/subject-36.csv","IMP","PL","PST","21","Kafkaesque Koffka","3.2.8","0","5","space","5","NA","7863","1805368","7863","NA","2","Внуки узнавали, приедет ли летом бабушка. ","1024","2","48000","-16","experiment","PRF","SG","FUT","vos","36","even","1914435","NA","1808989","3599","1914448","NA","3619","NA","1756513","1925136","3619","1925056","1917179","1914448","1801201","1917179","NA","NA","1756513","New experiment","0","3668284","17","yes","1024","6"
"undefined","undefined","203840.5","203840.5","black","legacy","9esli","0","li","esli","uniform","undefined","undefined","undefined","15","0","0","0","15","NA","0","0","0","15","2","15","15","15","1","15","0","0","0","Sun Jan 12 22:52:52 2020","The main experiment item","yes","liesli.osexp","/Users/olgavorontsova/Downloads","no","mono","no","18","no","white","no","yes","768","12","2","/Users/olgavorontsova/Downloads/subject-36.csv","PRF","SG","PST","18","Kafkaesque Koffka","3.2.8","0","1","space","1","NA","845","1805368","845","NA","2","Катя проверила, если она не забыла перчатки.","1024","2","48000","-16","experiment","PRF","SG","PST","svo","36","even","1925566","NA","1808989","3599","1925578","NA","3619","NA","1756513","1929487","3619","1929406","1928547","1925578","1801201","1928547","NA","NA","1756513","New experiment","0","3669129","18","yes","1024","7"
"undefined","undefined","193311.157895","193311.157895","black","legacy","19li","0","li","li","uniform","undefined","undefined","undefined","16","0","0","0","16","NA","0","0","0","16","2","16","16","16","1","16","0","0","0","Sun Jan 12 22:52:52 2020","The main experiment item","yes","liesli.osexp","/Users/olgavorontsova/Downloads","no","mono","no","18","no","white","no","yes","768","13","2","/Users/olgavorontsova/Downloads/subject-36.csv","PRF","PL","PST","37","Kafkaesque Koffka","3.2.8","0","5","space","5","NA","3783","1805368","3783","NA","2","Соседи не сказали, полили ли они цветы.","1024","2","48000","-16","experiment","PRF","PL","PST","vso","36","even","1929916","NA","1808989","3599","1929928","NA","3619","NA","1756513","1936697","3619","1936617","1932819","1929928","1801201","1932819","NA","NA","1756513","New experiment","0","3672912","19","yes","1024","7"
"undefined","undefined","184791.75","184791.75","black","legacy","8distr","0","li","distr","uniform","undefined","undefined","undefined","17","0","0","0","17","NA","0","0","0","17","2","17","17","17","1","17","0","0","0","Sun Jan 12 22:52:52 2020","The main experiment item","yes","liesli.osexp","/Users/olgavorontsova/Downloads","no","mono","no","18","no","white","no","yes","768","14","2","/Users/olgavorontsova/Downloads/subject-36.csv","PRF","SG","FUT","48","Kafkaesque Koffka","3.2.8","0","3","space","3","NA","22923","1805368","22923","NA","2","Мама съест пирожное, если оно будет вкусным.","1024","2","48000","-16","experiment","IMP","SG","FUT","sv","36","even","1937131","NA","1808989","3599","1937143","NA","3619","NA","1756513","1963173","3619","1963093","1940156","1937144","1801201","1940155","NA","NA","1756513","New experiment","0","3695835","20","yes","1024","7"
"undefined","undefined","176083.47619","176083.47619","black","legacy","4distr","0","li","distr","uniform","undefined","undefined","undefined","18","0","0","0","18","NA","0","0","0","18","2","18","18","18","1","18","0","0","0","Sun Jan 12 22:52:52 2020","The main experiment item","yes","liesli.osexp","/Users/olgavorontsova/Downloads","no","mono","no","18","no","white","no","yes","768","15","2","/Users/olgavorontsova/Downloads/subject-36.csv","PRF","SG","FUT","44","Kafkaesque Koffka","3.2.8","0","5","space","5","NA","1918","1805368","1918","NA","2","Витя помоет посуду, если доделает уроки.","1024","2","48000","-16","experiment","PRF","SG","FUT","(s)vo","36","even","1963609","NA","1808989","3599","1963622","NA","3619","NA","1756513","1968583","3619","1968503","1966570","1963622","1801201","1966570","NA","NA","1756513","New experiment","0","3697753","21","yes","1024","6"
"undefined","undefined","168161.5","168161.5","black","legacy","10esli","0","li","esli","uniform","undefined","undefined","undefined","19","0","0","0","19","NA","0","0","0","19","2","19","19","19","1","19","0","0","0","Sun Jan 12 22:52:52 2020","The main experiment item","yes","liesli.osexp","/Users/olgavorontsova/Downloads","no","mono","no","18","no","white","no","yes","768","16","2","/Users/olgavorontsova/Downloads/subject-36.csv","IMP","PL","PST","20","Kafkaesque Koffka","3.2.8","0","1","space","1","NA","1800","1805368","1800","NA","2","Они интересовались, если журналисты написали про выборы.","1024","2","48000","-16","experiment","PRF","PL","PST","svo","36","even","1969037","NA","1808989","3599","1969049","NA","3619","NA","1756513","1974306","3619","1974225","1972410","1969049","1801201","1972410","NA","NA","1756513","New experiment","0","3699553","22","yes","1024","7"
"undefined","undefined","161528.913043","161528.913043","black","legacy","9distr","0","li","distr","uniform","undefined","undefined","undefined","20","0","0","0","20","NA","0","0","0","20","2","20","20","20","1","20","0","0","0","Sun Jan 12 22:52:52 2020","The main experiment item","yes","liesli.osexp","/Users/olgavorontsova/Downloads","no","mono","no","18","no","white","no","yes","768","17","2","/Users/olgavorontsova/Downloads/subject-36.csv","PRF","SG","FUT","49","Kafkaesque Koffka","3.2.8","0","2","space","2","NA","15612","1805368","15612","NA","2","Маша позвонит другу, если он будет дома.","1024","2","48000","-16","experiment","IMP","SG","FUT","svo","36","even","1974736","NA","1808989","3599","1974748","NA","3619","NA","1756513","1993283","3619","1993203","1977577","1974749","1801201","1977577","NA","NA","1756513","New experiment","0","3715165","23","yes","1024","7"
"undefined","undefined","154897.166667","154897.166667","black","legacy","13li","0","li","li","uniform","undefined","undefined","undefined","21","0","0","0","21","NA","0","0","0","21","2","21","21","21","1","21","0","0","0","Sun Jan 12 22:52:52 2020","The main experiment item","yes","liesli.osexp","/Users/olgavorontsova/Downloads","no","mono","no","18","no","white","no","yes","768","18","2","/Users/olgavorontsova/Downloads/subject-36.csv","PRF","SG","PST","25","Kafkaesque Koffka","3.2.8","0","5","space","5","NA","2367","1805368","2367","NA","2","Витя забыл, будет ли во вторник игра.","1024","2","48000","-16","experiment","IMP","SG","FUT","vo","36","even","1993683","NA","1808989","3599","1993695","NA","3619","NA","1756513","1998475","3619","1998395","1996013","1993695","1801201","1996013","NA","NA","1756513","New experiment","0","3717532","24","yes","1024","7"
"undefined","undefined","148720.92","148720.92","black","legacy","7esli","0","li","esli","uniform","undefined","undefined","undefined","22","0","0","0","22","NA","0","0","0","22","2","22","22","22","1","22","0","0","0","Sun Jan 12 22:52:52 2020","The main experiment item","yes","liesli.osexp","/Users/olgavorontsova/Downloads","no","mono","no","18","no","white","no","yes","768","19","2","/Users/olgavorontsova/Downloads/subject-36.csv","PRF","PL","PST","14","Kafkaesque Koffka","3.2.8","0","1","space","1","NA","491","1805368","491","NA","2","Братья не сказали, если они покормили собаку.","1024","2","48000","-16","experiment","PRF","PL","PST","svo","36","even","1998913","NA","1808989","3599","1998926","NA","3619","NA","1756513","2002613","3619","2002533","2002027","1998926","1801201","2002027","NA","NA","1756513","New experiment","0","3718023","25","yes","1024","7"
"undefined","undefined","143087.653846","143087.653846","black","legacy","7distr","0","li","distr","uniform","undefined","undefined","undefined","23","0","0","0","23","NA","0","0","0","23","2","23","23","23","1","23","0","0","0","Sun Jan 12 22:52:52 2020","The main experiment item","yes","liesli.osexp","/Users/olgavorontsova/Downloads","no","mono","no","18","no","white","no","yes","768","20","2","/Users/olgavorontsova/Downloads/subject-36.csv","PRF","SG","FUT","47","Kafkaesque Koffka","3.2.8","0","5","space","5","NA","2256","1805368","2256","NA","2","Рита останется дома, если сильно заболеет.","1024","2","48000","-16","experiment","PRF","SG","FUT","(s)ov","36","even","2003046","NA","1808989","3599","2003058","NA","3619","NA","1756513","2008360","3619","2008279","2006009","2003059","1801201","2006009","NA","NA","1756513","New experiment","0","3720279","26","yes","1024","6"
"undefined","undefined","138034.777778","138034.777778","black","legacy","16li","0","li","li","uniform","undefined","undefined","undefined","24","0","0","0","24","NA","0","0","0","24","2","24","24","24","1","24","0","0","0","Sun Jan 12 22:52:52 2020","The main experiment item","yes","liesli.osexp","/Users/olgavorontsova/Downloads","no","mono","no","18","no","white","no","yes","768","21","2","/Users/olgavorontsova/Downloads/subject-36.csv","IMP","PL","PST","31","Kafkaesque Koffka","3.2.8","0","5","space","5","NA","6660","1805368","6660","NA","2","Родители сомневались, помыл ли Даня посуду.","1024","2","48000","-16","experiment","PRF","SG","PST","vso","36","even","2008783","NA","1808989","3599","2008795","NA","3619","NA","1756513","2018420","3619","2018340","2011664","2008795","1801201","2011664","NA","NA","1756513","New experiment","0","3726939","27","yes","1024","6"
"undefined","undefined","133176.071429","133176.071429","black","legacy","5distr","0","li","distr","uniform","undefined","undefined","undefined","25","0","0","0","25","NA","0","0","0","25","2","25","25","25","1","25","0","0","0","Sun Jan 12 22:52:52 2020","The main experiment item","yes","liesli.osexp","/Users/olgavorontsova/Downloads","no","mono","no","18","no","white","no","yes","768","22","2","/Users/olgavorontsova/Downloads/subject-36.csv","PRF","SG","FUT","45","Kafkaesque Koffka","3.2.8","0","5","space","5","NA","1991","1805368","1991","NA","2","Саша доест яблоко, если оно будет сладким.","1024","2","48000","-16","experiment","IMP","SG","FUT","sv","36","even","2018850","NA","1808989","3599","2018862","NA","3619","NA","1756513","2023956","3619","2023876","2021870","2018862","1801201","2021870","NA","NA","1756513","New experiment","0","3728930","28","yes","1024","7"
"undefined","undefined","128798","128798","black","legacy","14li","0","li","li","uniform","undefined","undefined","undefined","26","0","0","0","26","NA","0","0","0","26","2","26","26","26","1","26","0","0","0","Sun Jan 12 22:52:52 2020","The main experiment item","yes","liesli.osexp","/Users/olgavorontsova/Downloads","no","mono","no","18","no","white","no","yes","768","23","2","/Users/olgavorontsova/Downloads/subject-36.csv","IMP","PL","PST","27","Kafkaesque Koffka","3.2.8","0","5","space","5","NA","6212","1805368","6212","NA","2","Мальчики не знали, принесли ли друзья торт.","1024","2","48000","-16","experiment","PRF","PL","PST","vso","36","even","2024370","NA","1808989","3599","2024383","NA","3619","NA","1756513","2033435","3619","2033355","2027129","2024383","1801201","2027129","NA","NA","1756513","New experiment","0","3735142","29","yes","1024","7"
"undefined","undefined","124758.666667","124758.666667","black","legacy","2distr","0","li","distr","uniform","undefined","undefined","undefined","27","0","0","0","27","NA","0","0","0","27","2","27","27","27","1","27","0","0","0","Sun Jan 12 22:52:52 2020","The main experiment item","yes","liesli.osexp","/Users/olgavorontsova/Downloads","no","mono","no","18","no","white","no","yes","768","24","2","/Users/olgavorontsova/Downloads/subject-36.csv","PRF","SG","FUT","42","Kafkaesque Koffka","3.2.8","0","5","space","5","NA","7618","1805368","7618","NA","2","Вася купит картошку, если придёт зарплата.","1024","2","48000","-16","experiment","IMP","SG","FUT","svo","36","even","2033858","NA","1808989","3599","2033871","NA","3619","NA","1756513","2044467","3619","2044386","2036754","2033871","1801201","2036754","NA","NA","1756513","New experiment","0","3742760","30","yes","1024","#REF!"
"undefined","undefined","120755.774194","120755.774194","black","legacy","4esli","0","li","esli","uniform","undefined","undefined","undefined","28","0","0","0","28","NA","0","0","0","28","2","28","28","28","1","28","0","0","0","Sun Jan 12 22:52:52 2020","The main experiment item","yes","liesli.osexp","/Users/olgavorontsova/Downloads","no","mono","no","18","no","white","no","yes","768","25","2","/Users/olgavorontsova/Downloads/subject-36.csv","PRF","SG","PST","8","Kafkaesque Koffka","3.2.8","0","1","space","1","NA","669","1805368","669","NA","2","Петя спросил, если Вася смотрел кино.","1024","2","48000","-16","experiment","IMP","SG","PST","svo","36","even","2044872","NA","1808989","3599","2044885","NA","3619","NA","1756513","2048292","3619","2048212","2047529","2044885","1801201","2047528","NA","NA","1756513","New experiment","0","3743429","31","yes","1024","6"
"undefined","undefined","117103.75","117103.75","black","legacy","17li","0","li","li","uniform","undefined","undefined","undefined","29","0","0","0","29","NA","0","0","0","29","2","29","29","29","1","29","0","0","0","Sun Jan 12 22:52:52 2020","The main experiment item","yes","liesli.osexp","/Users/olgavorontsova/Downloads","no","mono","no","18","no","white","no","yes","768","26","2","/Users/olgavorontsova/Downloads/subject-36.csv","PRF","SG","PST","33","Kafkaesque Koffka","3.2.8","0","5","space","5","NA","3891","1805368","3891","NA","2","Вася не решил, купит ли он газету.","1024","2","48000","-16","experiment","PRF","SG","FUT","vso","36","even","2048683","NA","1808989","3599","2048696","NA","3619","NA","1756513","2055008","3619","2054928","2051023","2048696","1801201","2051022","NA","NA","1756513","New experiment","0","3747320","32","yes","1024","7"
