"acc","accuracy","average_response_time","avg_rt","background","canvas_backend","coding","compensation","condition","conditon","coordinates","correct","correct_next","correct_response_1","count_exp_sequence","count_exp_sequence1","count_exp_sequence2","count_experiment","count_fixation","count_getting_started","count_instr","count_list1","count_list2","count_logger","count_next","count_pause","count_response_1","count_sound","count_start_exp","count_task","count_thanks","count_training1","count_training2","datetime","description","disable_garbage_collection","experiment_file","experiment_path","font_bold","font_family","font_italic","font_size","font_underline","foreground","form_clicks","fullscreen","height","live_row","live_row_training1","logfile","main_asp","main_num","main_tense","num","opensesame_codename","opensesame_version","repeat_cycle","response","response_next","response_response_1","response_thanks","response_time","response_time_next","response_time_response_1","response_time_thanks","round_decimals","sentence_rus","sound_buf_size","sound_channels","sound_freq","sound_sample_size","start","sub_asp","sub_num","sub_tense","sub_wo","subject_nr","subject_parity","time_exp_sequence","time_exp_sequence1","time_exp_sequence2","time_experiment","time_fixation","time_getting_started","time_instr","time_list1","time_list2","time_logger","time_next","time_pause","time_response_1","time_sound","time_start_exp","time_task","time_thanks","time_training1","time_training2","title","total_correct","total_response_time","total_responses","uniform_coordinates","width","word_count"
"undefined","undefined","12554","12554","black","legacy","10distr","0","distr","NA","uniform","undefined","undefined","undefined","0","0","0","0","0","NA","0","0","0","0","2","0","0","0","1","0","0","0","0","Sat Jan 25 19:02:35 2020","The main experiment item","yes","liesli.osexp","/Users/nadya/Desktop/Эксперимент","no","mono","no","18","no","white","no","no","768","0","0","/Users/nadya/Desktop/Эксперимент/subject-39.csv","PRF","SG","FUT","50","Kafkaesque Koffka","3.2.7","0","5","space","5","NA","12506","12602","12506","NA","2","Дима проверит почту, если компьютер включится.","1024","2","48000","-16","experiment","PRF","SG","FUT","sv","39","odd","16470","NA","NA","3418","16484","NA","3460","16075","NA","32118","3460","32038","19515","16484","NA","19515","NA","16076","NA","New experiment","0","25108","2","yes","1024","6"
"undefined","undefined","9076.33333333","9076.33333333","black","legacy","2li","0","li","NA","uniform","undefined","undefined","undefined","1","0","0","0","1","NA","0","0","0","1","2","1","1","1","1","1","0","0","0","Sat Jan 25 19:02:35 2020","The main experiment item","yes","liesli.osexp","/Users/nadya/Desktop/Эксперимент","no","mono","no","18","no","white","no","no","768","1","1","/Users/nadya/Desktop/Эксперимент/subject-39.csv","PRF","PL","PST","3","Kafkaesque Koffka","3.2.7","0","5","space","5","NA","2121","12602","2121","NA","2","Гости не сообщили, приедут ли они.","1024","2","48000","-16","experiment","PRF","PL","FUT","vs","39","odd","32496","NA","NA","3418","32509","NA","3460","16075","NA","37134","3460","37054","34918","32509","NA","34918","NA","16076","NA","New experiment","0","27229","3","yes","1024","6"
"undefined","undefined","7754.5","7754.5","black","legacy","12esli","0","esli","NA","uniform","undefined","undefined","undefined","2","0","0","0","2","NA","0","0","0","2","2","2","2","2","1","2","0","0","0","Sat Jan 25 19:02:35 2020","The main experiment item","yes","liesli.osexp","/Users/nadya/Desktop/Эксперимент","no","mono","no","18","no","white","no","no","768","2","2","/Users/nadya/Desktop/Эксперимент/subject-39.csv","PRF","SG","PST","24","Kafkaesque Koffka","3.2.7","0","2","space","2","NA","3789","12602","3789","NA","2","Нина спросила, если дети поели.","1024","2","48000","-16","experiment","PRF","PL","PST","sv","39","odd","37474","NA","NA","3418","37485","NA","3460","16075","NA","43583","3460","43503","39696","37485","NA","39696","NA","16076","NA","New experiment","0","31018","4","yes","1024","5"
"undefined","undefined","12502","12502","black","legacy","8li","0","li","NA","uniform","undefined","undefined","undefined","3","0","0","0","3","NA","0","0","0","3","2","3","3","3","1","3","0","0","0","Sat Jan 25 19:02:35 2020","The main experiment item","yes","liesli.osexp","/Users/nadya/Desktop/Эксперимент","no","mono","no","18","no","white","no","no","768","0","2","/Users/nadya/Desktop/Эксперимент/subject-39.csv","PRF","SG","PST","15","Kafkaesque Koffka","3.2.7","0","5","space","5","NA","809","43185","809","NA","2","Миша уточнил, будет ли на обед суп.","1024","2","48000","-16","experiment","IMP","SG","FUT","vos","39","odd","46993","46648","NA","3418","47004","NA","3460","16075","NA","50362","3460","50282","49458","47004","43622","49458","NA","16076","NA","New experiment","0","75012","6","yes","1024","7"
"undefined","undefined","10820","10820","black","legacy","1li","0","li","NA","uniform","undefined","undefined","undefined","4","0","0","0","4","NA","0","0","0","4","2","4","4","4","1","4","0","0","0","Sat Jan 25 19:02:35 2020","The main experiment item","yes","liesli.osexp","/Users/nadya/Desktop/Эксперимент","no","mono","no","18","no","white","no","no","768","1","2","/Users/nadya/Desktop/Эксперимент/subject-39.csv","IMP","SG","PST","1","Kafkaesque Koffka","3.2.7","0","5","space","5","NA","728","43185","728","NA","2","Саша не знала, придут ли дети домой.","1024","2","48000","-16","experiment","PRF","PL","FUT","vso","39","odd","50780","46648","NA","3418","50792","NA","3460","16075","NA","54031","3460","53950","53207","50792","43622","53207","NA","16076","NA","New experiment","0","75740","7","yes","1024","7"
"undefined","undefined","9806.5","9806.5","black","legacy","18esli","0","esli","NA","uniform","undefined","undefined","undefined","5","0","0","0","5","NA","0","0","0","5","2","5","5","5","1","5","0","0","0","Sat Jan 25 19:02:35 2020","The main experiment item","yes","liesli.osexp","/Users/nadya/Desktop/Эксперимент","no","mono","no","18","no","white","no","no","768","2","2","/Users/nadya/Desktop/Эксперимент/subject-39.csv","PRF","PL","PST","36","Kafkaesque Koffka","3.2.7","0","3","space","3","NA","2712","43185","2712","NA","2","Хозяева уточнили, если Маша выключила плиту.","1024","2","48000","-16","experiment","PRF","SG","PST","svo","39","odd","54459","46648","NA","3418","54472","NA","3460","16075","NA","60337","3460","60257","57527","54472","43622","57527","NA","16076","NA","New experiment","0","78452","8","yes","1024","6"
"undefined","undefined","8798.66666667","8798.66666667","black","legacy","3distr","0","distr","NA","uniform","undefined","undefined","undefined","6","0","0","0","6","NA","0","0","0","6","2","6","6","6","1","6","0","0","0","Sat Jan 25 19:02:35 2020","The main experiment item","yes","liesli.osexp","/Users/nadya/Desktop/Эксперимент","no","mono","no","18","no","white","no","no","768","3","2","/Users/nadya/Desktop/Эксперимент/subject-39.csv","PRF","SG","FUT","43","Kafkaesque Koffka","3.2.7","0","5","space","5","NA","736","43185","736","NA","2","Таня посмотрит новости, если заработает телевизор.","1024","2","48000","-16","experiment","PRF","SG","FUT","vs","39","odd","60760","46648","NA","3418","60772","NA","3460","16075","NA","64802","3460","64722","63972","60772","43622","63972","NA","16076","NA","New experiment","0","79188","9","yes","1024","6"
"undefined","undefined","8212.5","8212.5","black","legacy","1distr","0","distr","NA","uniform","undefined","undefined","undefined","7","0","0","0","7","NA","0","0","0","7","2","7","7","7","1","7","0","0","0","Sat Jan 25 19:02:35 2020","The main experiment item","yes","liesli.osexp","/Users/nadya/Desktop/Эксперимент","no","mono","no","18","no","white","no","no","768","4","2","/Users/nadya/Desktop/Эксперимент/subject-39.csv","PRF","SG","FUT","41","Kafkaesque Koffka","3.2.7","0","5","space","5","NA","2937","43185","2937","NA","2","Папа придёт поздно, если вечером будет снег.","1024","2","48000","-16","experiment","IMP","PL","FUT","ovs","39","odd","65189","46648","NA","3418","65201","NA","3460","16075","NA","71000","3460","70920","67968","65201","43622","67968","NA","16076","NA","New experiment","0","82125","10","yes","1024","7"
"undefined","undefined","7524","7524","black","legacy","15esli","0","esli","NA","uniform","undefined","undefined","undefined","8","0","0","0","8","NA","0","0","0","8","2","8","8","8","1","8","0","0","0","Sat Jan 25 19:02:35 2020","The main experiment item","yes","liesli.osexp","/Users/nadya/Desktop/Эксперимент","no","mono","no","18","no","white","no","no","768","5","2","/Users/nadya/Desktop/Эксперимент/subject-39.csv","PRF","SG","PST","30","Kafkaesque Koffka","3.2.7","0","2","space","2","NA","639","43185","639","NA","2","Учитель поинтересовался, если ученики выполнили задание.","1024","2","48000","-16","experiment","PRF","PL","PST","svo","39","odd","71447","46648","NA","3418","71459","NA","3460","16075","NA","75761","3460","75681","75024","71459","43622","75023","NA","16076","NA","New experiment","0","82764","11","yes","1024","6"
"undefined","undefined","6923.83333333","6923.83333333","black","legacy","3li","0","li","NA","uniform","undefined","undefined","undefined","9","0","0","0","9","NA","0","0","0","9","2","9","9","9","1","9","0","0","0","Sat Jan 25 19:02:35 2020","The main experiment item","yes","liesli.osexp","/Users/nadya/Desktop/Эксперимент","no","mono","no","18","no","white","no","no","768","6","2","/Users/nadya/Desktop/Эксперимент/subject-39.csv","IMP","PL","PST","5","Kafkaesque Koffka","3.2.7","0","5","space","5","NA","322","43185","322","NA","2","Туристы сомневались, будет ли вечером дождь.","1024","2","48000","-16","experiment","IMP","SG","FUT","vs","39","odd","76146","46648","NA","3418","76158","NA","3460","16075","NA","79324","3460","79244","78904","76158","43622","78904","NA","16076","NA","New experiment","0","83086","12","yes","1024","6"
"undefined","undefined","6415.92307692","6415.92307692","black","legacy","6distr","0","distr","NA","uniform","undefined","undefined","undefined","10","0","0","0","10","NA","0","0","0","10","2","10","10","10","1","10","0","0","0","Sat Jan 25 19:02:35 2020","The main experiment item","yes","liesli.osexp","/Users/nadya/Desktop/Эксперимент","no","mono","no","18","no","white","no","no","768","7","2","/Users/nadya/Desktop/Эксперимент/subject-39.csv","PRF","SG","FUT","46","Kafkaesque Koffka","3.2.7","0","5","space","5","NA","321","43185","321","NA","2","Женя пойдёт гулять, если его позовут.","1024","2","48000","-16","experiment","PRF","SG","FUT","ov","39","odd","79682","46648","NA","3418","79693","NA","3460","16075","NA","82629","3460","82549","82211","79693","43622","82211","NA","16076","NA","New experiment","0","83407","13","yes","1024","6"
"undefined","undefined","6030.5","6030.5","black","legacy","6esli","0","esli","NA","uniform","undefined","undefined","undefined","11","0","0","0","11","NA","0","0","0","11","2","11","11","11","1","11","0","0","0","Sat Jan 25 19:02:35 2020","The main experiment item","yes","liesli.osexp","/Users/nadya/Desktop/Эксперимент","no","mono","no","18","no","white","no","no","768","8","2","/Users/nadya/Desktop/Эксперимент/subject-39.csv","PRF","SG","PST","12","Kafkaesque Koffka","3.2.7","0","2","space","2","NA","1020","43185","1020","NA","2","Лена задумалась, если ей понравились подарки.","1024","2","48000","-16","experiment","PRF","PL","PST","ovs","39","odd","83036","46648","NA","3418","83049","NA","3460","16075","NA","87101","3460","87021","85985","83049","43622","85985","NA","16076","NA","New experiment","0","84427","14","yes","1024","6"
"undefined","undefined","5657","5657","black","legacy","20li","0","li","NA","uniform","undefined","undefined","undefined","12","0","0","0","12","NA","0","0","0","12","2","12","12","12","1","12","0","0","0","Sat Jan 25 19:02:35 2020","The main experiment item","yes","liesli.osexp","/Users/nadya/Desktop/Эксперимент","no","mono","no","18","no","white","no","no","768","9","2","/Users/nadya/Desktop/Эксперимент/subject-39.csv","PRF","SG","PST","39","Kafkaesque Koffka","3.2.7","0","5","space","5","NA","428","43185","428","NA","2","Коля задумался, остались ли в доме конфеты","1024","2","48000","-16","experiment","PRF","PL","PST","vos","39","odd","87499","46648","NA","3418","87510","NA","3460","16075","NA","91016","3460","90936","90494","87511","43622","90493","NA","16076","NA","New experiment","0","84855","15","yes","1024","7"
"undefined","undefined","5319.3125","5319.3125","black","legacy","5li","0","li","NA","uniform","undefined","undefined","undefined","13","0","0","0","13","NA","0","0","0","13","2","13","13","13","1","13","0","0","0","Sat Jan 25 19:02:35 2020","The main experiment item","yes","liesli.osexp","/Users/nadya/Desktop/Эксперимент","no","mono","no","18","no","white","no","no","768","10","2","/Users/nadya/Desktop/Эксперимент/subject-39.csv","PRF","PL","PST","9","Kafkaesque Koffka","3.2.7","0","5","space","5","NA","254","43185","254","NA","2","Ученики забыли, будут ли завтра занятия.","1024","2","48000","-16","experiment","IMP","PL","FUT","vs","39","odd","91396","46648","NA","3418","91408","NA","3460","16075","NA","94555","3460","94475","94204","91408","43622","94204","NA","16076","NA","New experiment","0","85109","16","yes","1024","6"
"undefined","undefined","5030.94117647","5030.94117647","black","legacy","11esli","0","esli","NA","uniform","undefined","undefined","undefined","14","0","0","0","14","NA","0","0","0","14","2","14","14","14","1","14","0","0","0","Sat Jan 25 19:02:35 2020","The main experiment item","yes","liesli.osexp","/Users/nadya/Desktop/Эксперимент","no","mono","no","18","no","white","no","no","768","11","2","/Users/nadya/Desktop/Эксперимент/subject-39.csv","IMP","PL","PST","22","Kafkaesque Koffka","3.2.7","0","2","space","2","NA","417","43185","417","NA","2","Внуки узнавали, если летом приедет бабушка. ","1024","2","48000","-16","experiment","PRF","SG","FUT","ovs","39","odd","94951","46648","NA","3418","94964","NA","3460","16075","NA","98469","3460","98389","97955","94964","43622","97955","NA","16076","NA","New experiment","0","85526","17","yes","1024","6"
"undefined","undefined","4811.61111111","4811.61111111","black","legacy","9li","0","li","NA","uniform","undefined","undefined","undefined","15","0","0","0","15","NA","0","0","0","15","2","15","15","15","1","15","0","0","0","Sat Jan 25 19:02:35 2020","The main experiment item","yes","liesli.osexp","/Users/nadya/Desktop/Эксперимент","no","mono","no","18","no","white","no","no","768","12","2","/Users/nadya/Desktop/Эксперимент/subject-39.csv","PRF","SG","PST","17","Kafkaesque Koffka","3.2.7","0","5","space","5","NA","1083","43185","1083","NA","2","Катя проверила, не забыла ли она перчатки.","1024","2","48000","-16","experiment","PRF","SG","PST","vso","39","odd","98841","46648","NA","3418","98853","NA","3460","16075","NA","102698","3460","102617","101519","98853","43622","101519","NA","16076","NA","New experiment","0","86609","18","yes","1024","7"
"undefined","undefined","4589.89473684","4589.89473684","black","legacy","19esli","0","esli","NA","uniform","undefined","undefined","undefined","16","0","0","0","16","NA","0","0","0","16","2","16","16","16","1","16","0","0","0","Sat Jan 25 19:02:35 2020","The main experiment item","yes","liesli.osexp","/Users/nadya/Desktop/Эксперимент","no","mono","no","18","no","white","no","no","768","13","2","/Users/nadya/Desktop/Эксперимент/subject-39.csv","PRF","PL","PST","38","Kafkaesque Koffka","3.2.7","0","2","space","2","NA","599","43185","599","NA","2","Соседи не сказали, если они полили цветы.","1024","2","48000","-16","experiment","PRF","PL","PST","svo","39","odd","103075","46648","NA","3418","103087","NA","3460","16075","NA","106593","3460","106513","105896","103087","43622","105895","NA","16076","NA","New experiment","0","87208","19","yes","1024","7"
"undefined","undefined","4415.75","4415.75","black","legacy","8distr","0","distr","NA","uniform","undefined","undefined","undefined","17","0","0","0","17","NA","0","0","0","17","2","17","17","17","1","17","0","0","0","Sat Jan 25 19:02:35 2020","The main experiment item","yes","liesli.osexp","/Users/nadya/Desktop/Эксперимент","no","mono","no","18","no","white","no","no","768","14","2","/Users/nadya/Desktop/Эксперимент/subject-39.csv","PRF","SG","FUT","48","Kafkaesque Koffka","3.2.7","0","5","space","5","NA","1107","43185","1107","NA","2","Мама съест пирожное, если оно будет вкусным.","1024","2","48000","-16","experiment","IMP","SG","FUT","sv","39","odd","107019","46648","NA","3418","107031","NA","3460","16075","NA","111232","3460","111152","110029","107031","43622","110029","NA","16076","NA","New experiment","0","88315","20","yes","1024","7"
"undefined","undefined","4248.52380952","4248.52380952","black","legacy","4distr","0","distr","NA","uniform","undefined","undefined","undefined","18","0","0","0","18","NA","0","0","0","18","2","18","18","18","1","18","0","0","0","Sat Jan 25 19:02:35 2020","The main experiment item","yes","liesli.osexp","/Users/nadya/Desktop/Эксперимент","no","mono","no","18","no","white","no","no","768","15","2","/Users/nadya/Desktop/Эксперимент/subject-39.csv","PRF","SG","FUT","44","Kafkaesque Koffka","3.2.7","0","5","space","5","NA","904","43185","904","NA","2","Витя помоет посуду, если доделает уроки.","1024","2","48000","-16","experiment","PRF","SG","FUT","(s)vo","39","odd","111622","46648","NA","3418","111634","NA","3460","16075","NA","115589","3460","115509","114580","111634","43622","114580","NA","16076","NA","New experiment","0","89219","21","yes","1024","6"
"undefined","undefined","4103.59090909","4103.59090909","black","legacy","10li","0","li","NA","uniform","undefined","undefined","undefined","19","0","0","0","19","NA","0","0","0","19","2","19","19","19","1","19","0","0","0","Sat Jan 25 19:02:35 2020","The main experiment item","yes","liesli.osexp","/Users/nadya/Desktop/Эксперимент","no","mono","no","18","no","white","no","no","768","16","2","/Users/nadya/Desktop/Эксперимент/subject-39.csv","IMP","PL","PST","19","Kafkaesque Koffka","3.2.7","0","5","space","5","NA","1060","43185","1060","NA","2","Они интересовались, написали ли журналисты про выборы.","1024","2","48000","-16","experiment","PRF","PL","PST","vso","39","odd","116001","46648","NA","3418","116013","NA","3460","16075","NA","120457","3460","120377","119295","116013","43622","119295","NA","16076","NA","New experiment","0","90279","22","yes","1024","7"
"undefined","undefined","4024.73913043","4024.73913043","black","legacy","9distr","0","distr","NA","uniform","undefined","undefined","undefined","20","0","0","0","20","NA","0","0","0","20","2","20","20","20","1","20","0","0","0","Sat Jan 25 19:02:35 2020","The main experiment item","yes","liesli.osexp","/Users/nadya/Desktop/Эксперимент","no","mono","no","18","no","white","no","no","768","17","2","/Users/nadya/Desktop/Эксперимент/subject-39.csv","PRF","SG","FUT","49","Kafkaesque Koffka","3.2.7","0","4","space","4","NA","2290","43185","2290","NA","2","Маша позвонит другу, если он будет дома.","1024","2","48000","-16","experiment","IMP","SG","FUT","svo","39","odd","120854","46648","NA","3418","120866","NA","3460","16075","NA","126071","3460","125991","123683","120866","43622","123682","NA","16076","NA","New experiment","0","92569","23","yes","1024","7"
"undefined","undefined","3869.58333333","3869.58333333","black","legacy","13esli","0","esli","NA","uniform","undefined","undefined","undefined","21","0","0","0","21","NA","0","0","0","21","2","21","21","21","1","21","0","0","0","Sat Jan 25 19:02:35 2020","The main experiment item","yes","liesli.osexp","/Users/nadya/Desktop/Эксперимент","no","mono","no","18","no","white","no","no","768","18","2","/Users/nadya/Desktop/Эксперимент/subject-39.csv","PRF","SG","PST","26","Kafkaesque Koffka","3.2.7","0","2","space","2","NA","301","43185","301","NA","2","Витя забыл, если во вторник будет игра.","1024","2","48000","-16","experiment","IMP","SG","FUT","ovs","39","odd","126437","46648","NA","3418","126449","NA","3460","16075","NA","129421","3460","129341","129023","126450","43622","129023","NA","16076","NA","New experiment","0","92870","24","yes","1024","7"
"undefined","undefined","3725.16","3725.16","black","legacy","7li","0","li","NA","uniform","undefined","undefined","undefined","22","0","0","0","22","NA","0","0","0","22","2","22","22","22","1","22","0","0","0","Sat Jan 25 19:02:35 2020","The main experiment item","yes","liesli.osexp","/Users/nadya/Desktop/Эксперимент","no","mono","no","18","no","white","no","no","768","19","2","/Users/nadya/Desktop/Эксперимент/subject-39.csv","PRF","PL","PST","13","Kafkaesque Koffka","3.2.7","0","5","space","5","NA","259","43185","259","NA","2","Братья не сказали, покормили ли они собаку.","1024","2","48000","-16","experiment","PRF","PL","PST","vso","39","odd","129810","46648","NA","3418","129822","NA","3460","16075","NA","133128","3460","133048","132773","129822","43622","132773","NA","16076","NA","New experiment","0","93129","25","yes","1024","7"
"undefined","undefined","3696.42307692","3696.42307692","black","legacy","7distr","0","distr","NA","uniform","undefined","undefined","undefined","23","0","0","0","23","NA","0","0","0","23","2","23","23","23","1","23","0","0","0","Sat Jan 25 19:02:35 2020","The main experiment item","yes","liesli.osexp","/Users/nadya/Desktop/Эксперимент","no","mono","no","18","no","white","no","no","768","20","2","/Users/nadya/Desktop/Эксперимент/subject-39.csv","PRF","SG","FUT","47","Kafkaesque Koffka","3.2.7","0","5","space","5","NA","2978","43185","2978","NA","2","Рита останется дома, если сильно заболеет.","1024","2","48000","-16","experiment","PRF","SG","FUT","(s)ov","39","odd","133540","46648","NA","3418","133552","NA","3460","16075","NA","139602","3460","139522","136524","133552","43622","136524","NA","16076","NA","New experiment","0","96107","26","yes","1024","6"
"undefined","undefined","3599.81481481","3599.81481481","black","legacy","16esli","0","esli","NA","uniform","undefined","undefined","undefined","24","0","0","0","24","NA","0","0","0","24","2","24","24","24","1","24","0","0","0","Sat Jan 25 19:02:35 2020","The main experiment item","yes","liesli.osexp","/Users/nadya/Desktop/Эксперимент","no","mono","no","18","no","white","no","no","768","21","2","/Users/nadya/Desktop/Эксперимент/subject-39.csv","IMP","PL","PST","32","Kafkaesque Koffka","3.2.7","0","2","space","2","NA","1088","43185","1088","NA","2","Родители сомневалась, если Даня помыл посуду.","1024","2","48000","-16","experiment","PRF","SG","PST","svo","39","odd","139996","46648","NA","3418","140006","NA","3460","16075","NA","144200","3460","144120","143014","140006","43622","143014","NA","16076","NA","New experiment","0","97195","27","yes","1024","6"
"undefined","undefined","3604.89285714","3604.89285714","black","legacy","5distr","0","distr","NA","uniform","undefined","undefined","undefined","25","0","0","0","25","NA","0","0","0","25","2","25","25","25","1","25","0","0","0","Sat Jan 25 19:02:35 2020","The main experiment item","yes","liesli.osexp","/Users/nadya/Desktop/Эксперимент","no","mono","no","18","no","white","no","no","768","22","2","/Users/nadya/Desktop/Эксперимент/subject-39.csv","PRF","SG","FUT","45","Kafkaesque Koffka","3.2.7","0","3","space","3","NA","3742","43185","3742","NA","2","Саша доест яблоко, если оно будет сладким.","1024","2","48000","-16","experiment","IMP","SG","FUT","sv","39","odd","144597","46648","NA","3418","144609","NA","3460","16075","NA","151442","3460","151362","147600","144609","43622","147600","NA","16076","NA","New experiment","0","100937","28","yes","1024","7"
"undefined","undefined","3506","3506","black","legacy","14esli","0","esli","NA","uniform","undefined","undefined","undefined","26","0","0","0","26","NA","0","0","0","26","2","26","26","26","1","26","0","0","0","Sat Jan 25 19:02:35 2020","The main experiment item","yes","liesli.osexp","/Users/nadya/Desktop/Эксперимент","no","mono","no","18","no","white","no","no","768","23","2","/Users/nadya/Desktop/Эксперимент/subject-39.csv","IMP","PL","PST","28","Kafkaesque Koffka","3.2.7","0","2","space","2","NA","737","43185","737","NA","2","Мальчики не знали, если друзья принесли торт.","1024","2","48000","-16","experiment","PRF","PL","PST","svo","39","odd","151828","46648","NA","3418","151839","NA","3460","16075","NA","155561","3460","155481","154729","151840","43622","154729","NA","16076","NA","New experiment","0","101674","29","yes","1024","7"
"undefined","undefined","3443.33333333","3443.33333333","black","legacy","2distr","0","distr","NA","uniform","undefined","undefined","undefined","27","0","0","0","27","NA","0","0","0","27","2","27","27","27","1","27","0","0","0","Sat Jan 25 19:02:35 2020","The main experiment item","yes","liesli.osexp","/Users/nadya/Desktop/Эксперимент","no","mono","no","18","no","white","no","no","768","24","2","/Users/nadya/Desktop/Эксперимент/subject-39.csv","PRF","SG","FUT","42","Kafkaesque Koffka","3.2.7","0","5","space","5","NA","1626","43185","1626","NA","2","Вася купит картошку, если придёт зарплата.","1024","2","48000","-16","experiment","PRF","SG","FUT","vs","39","odd","155988","46648","NA","3418","156000","NA","3460","16075","NA","160608","3460","160528","158887","156000","43622","158887","NA","16076","NA","New experiment","0","103300","30","yes","1024","6"
"undefined","undefined","3371","3371","black","legacy","4li","0","li","NA","uniform","undefined","undefined","undefined","28","0","0","0","28","NA","0","0","0","28","2","28","28","28","1","28","0","0","0","Sat Jan 25 19:02:35 2020","The main experiment item","yes","liesli.osexp","/Users/nadya/Desktop/Эксперимент","no","mono","no","18","no","white","no","no","768","25","2","/Users/nadya/Desktop/Эксперимент/subject-39.csv","PRF","SG","PST","7","Kafkaesque Koffka","3.2.7","0","5","space","5","NA","1201","43185","1201","NA","2","Петя спросил, смотрел ли Вася кино.","1024","2","48000","-16","experiment","IMP","SG","PST","vso","39","odd","160959","46648","NA","3418","160974","NA","3460","16075","NA","164595","3460","164515","163297","160975","43622","163297","NA","16076","NA","New experiment","0","104501","31","yes","1024","6"
"undefined","undefined","3309.03125","3309.03125","black","legacy","17esli","0","esli","NA","uniform","undefined","undefined","undefined","29","0","0","0","29","NA","0","0","0","29","2","29","29","29","1","29","0","0","0","Sat Jan 25 19:02:35 2020","The main experiment item","yes","liesli.osexp","/Users/nadya/Desktop/Эксперимент","no","mono","no","18","no","white","no","no","768","26","2","/Users/nadya/Desktop/Эксперимент/subject-39.csv","PRF","SG","PST","34","Kafkaesque Koffka","3.2.7","0","2","space","2","NA","1388","43185","1388","NA","2","Вася не решил, если он купит газету.","1024","2","48000","-16","experiment","PRF","SG","FUT","svo","39","odd","164959","46648","NA","3418","164971","NA","3460","16075","NA","169078","3460","168997","167593","164971","43622","167593","NA","16076","NA","New experiment","0","105889","32","yes","1024","7"
