"acc","accuracy","average_response_time","avg_rt","background","canvas_backend","coding","compensation","condition","conditon","coordinates","correct","correct_next","correct_response_1","count_exp_sequence","count_exp_sequence1","count_exp_sequence2","count_experiment","count_fixation","count_getting_started","count_instr","count_list1","count_list2","count_logger","count_next","count_pause","count_response_1","count_sound","count_start_exp","count_task","count_thanks","count_training1","count_training2","datetime","description","disable_garbage_collection","experiment_file","experiment_path","font_bold","font_family","font_italic","font_size","font_underline","foreground","form_clicks","fullscreen","height","live_row","live_row_training1","logfile","main_asp","main_num","main_tense","num","opensesame_codename","opensesame_version","repeat_cycle","response","response_next","response_response_1","response_thanks","response_time","response_time_next","response_time_response_1","response_time_thanks","round_decimals","sentence_rus","sound_buf_size","sound_channels","sound_freq","sound_sample_size","start","sub_asp","sub_num","sub_tense","sub_wo","subject_nr","subject_parity","time_exp_sequence","time_exp_sequence1","time_exp_sequence2","time_experiment","time_fixation","time_getting_started","time_instr","time_list1","time_list2","time_logger","time_next","time_pause","time_response_1","time_sound","time_start_exp","time_task","time_thanks","time_training1","time_training2","title","total_correct","total_response_time","total_responses","uniform_coordinates","width","word_count"
"undefined","undefined","53549.5","53549.5","black","legacy","10distr","0","distr","NA","uniform","undefined","undefined","undefined","0","0","0","0","0","NA","0","0","0","0","2","0","0","0","1","0","0","0","0","12/08/19 18:02:14","The main experiment item","yes","tmp110oashp.osexp","C:/Users/lev/Documents","no","mono","no","18","no","white","no","yes","768","0","0","C:/Users/lev/Documents/L07HO.csv","PRF","SG","FUT","50","Kafkaesque Koffka","3.2.7","0","5","space","5","NA","5908","101191","5908","NA","2","Дима проверит почту, если компьютер включится.","1024","2","48000","-16","experiment","PRF","SG","FUT","sv","7","odd","104062","NA","NA","2490","104064","NA","2495","103687","NA","113056","2495","112976","107066","104064","NA","107066","NA","103687","NA","New experiment","0","107099","2","yes","1024","6"
"undefined","undefined","36177","36177","black","legacy","2li","0","li","NA","uniform","undefined","undefined","undefined","1","0","0","0","1","NA","0","0","0","1","2","1","1","1","1","1","0","0","0","12/08/19 18:02:14","The main experiment item","yes","tmp110oashp.osexp","C:/Users/lev/Documents","no","mono","no","18","no","white","no","yes","768","1","1","C:/Users/lev/Documents/L07HO.csv","PRF","PL","PST","3","Kafkaesque Koffka","3.2.7","0","5","space","5","NA","1432","101191","1432","NA","2","Гости не сообщили, приедут ли они.","1024","2","48000","-16","experiment","PRF","PL","FUT","vs","7","odd","113522","NA","NA","2490","113524","NA","2495","103687","NA","117421","2495","117341","115906","113524","NA","115906","NA","103687","NA","New experiment","0","108531","3","yes","1024","6"
"undefined","undefined","27587.25","27587.25","black","legacy","12esli","0","esli","NA","uniform","undefined","undefined","undefined","2","0","0","0","2","NA","0","0","0","2","2","2","2","2","1","2","0","0","0","12/08/19 18:02:14","The main experiment item","yes","tmp110oashp.osexp","C:/Users/lev/Documents","no","mono","no","18","no","white","no","yes","768","2","2","C:/Users/lev/Documents/L07HO.csv","PRF","SG","PST","24","Kafkaesque Koffka","3.2.7","0","1","space","1","NA","1818","101191","1818","NA","2","Нина спросила, если дети поели.","1024","2","48000","-16","experiment","PRF","PL","PST","sv","7","odd","117803","NA","NA","2490","117805","NA","2495","103687","NA","121916","2495","121836","120016","117805","NA","120016","NA","103687","NA","New experiment","0","110349","4","yes","1024","5"
"undefined","undefined","41862.6666667","41862.6666667","black","legacy","8li","0","li","NA","uniform","undefined","undefined","undefined","3","0","0","0","3","NA","0","0","0","3","2","3","3","3","1","3","0","0","0","12/08/19 18:02:14","The main experiment item","yes","tmp110oashp.osexp","C:/Users/lev/Documents","no","mono","no","18","no","white","no","yes","768","0","2","C:/Users/lev/Documents/L07HO.csv","PRF","SG","PST","15","Kafkaesque Koffka","3.2.7","0","5","space","5","NA","1261","139566","1261","NA","2","Миша уточнил, будет ли на обед суп.","1024","2","48000","-16","experiment","IMP","SG","FUT","vos","7","odd","142381","142062","NA","2490","142383","NA","2495","103687","NA","146171","2495","146091","144827","142383","122000","144826","NA","103687","NA","New experiment","0","251176","6","yes","1024","7"
"undefined","undefined","36256.8571429","36256.8571429","black","legacy","1li","0","li","NA","uniform","undefined","undefined","undefined","4","0","0","0","4","NA","0","0","0","4","2","4","4","4","1","4","0","0","0","12/08/19 18:02:14","The main experiment item","yes","tmp110oashp.osexp","C:/Users/lev/Documents","no","mono","no","18","no","white","no","yes","768","1","2","C:/Users/lev/Documents/L07HO.csv","IMP","SG","PST","1","Kafkaesque Koffka","3.2.7","0","5","space","5","NA","2622","139566","2622","NA","2","Саша не знала, придут ли дети домой.","1024","2","48000","-16","experiment","PRF","PL","FUT","vso","7","odd","146570","142062","NA","2490","146572","NA","2495","103687","NA","151673","2495","151593","148968","146572","122000","148967","NA","103687","NA","New experiment","0","253798","7","yes","1024","7"
"undefined","undefined","31762.625","31762.625","black","legacy","18esli","0","esli","NA","uniform","undefined","undefined","undefined","5","0","0","0","5","NA","0","0","0","5","2","5","5","5","1","5","0","0","0","12/08/19 18:02:14","The main experiment item","yes","tmp110oashp.osexp","C:/Users/lev/Documents","no","mono","no","18","no","white","no","yes","768","2","2","C:/Users/lev/Documents/L07HO.csv","PRF","PL","PST","36","Kafkaesque Koffka","3.2.7","0","1","space","1","NA","303","139566","303","NA","2","Хозяева уточнили, если Маша выключила плиту.","1024","2","48000","-16","experiment","PRF","SG","PST","svo","7","odd","152115","142062","NA","2490","152117","NA","2495","103687","NA","155542","2495","155462","155156","152117","122000","155155","NA","103687","NA","New experiment","0","254101","8","yes","1024","6"
"undefined","undefined","28322.6666667","28322.6666667","black","legacy","3distr","0","distr","NA","uniform","undefined","undefined","undefined","6","0","0","0","6","NA","0","0","0","6","2","6","6","6","1","6","0","0","0","12/08/19 18:02:14","The main experiment item","yes","tmp110oashp.osexp","C:/Users/lev/Documents","no","mono","no","18","no","white","no","yes","768","3","2","C:/Users/lev/Documents/L07HO.csv","PRF","SG","FUT","43","Kafkaesque Koffka","3.2.7","0","5","space","5","NA","803","139566","803","NA","2","Таня посмотрит новости, если заработает телевизор.","1024","2","48000","-16","experiment","PRF","SG","FUT","vs","7","odd","156023","142062","NA","2490","156025","NA","2495","103687","NA","160112","2495","160032","159226","156025","122000","159226","NA","103687","NA","New experiment","0","254904","9","yes","1024","6"
"undefined","undefined","25613.5","25613.5","black","legacy","1distr","0","distr","NA","uniform","undefined","undefined","undefined","7","0","0","0","7","NA","0","0","0","7","2","7","7","7","1","7","0","0","0","12/08/19 18:02:14","The main experiment item","yes","tmp110oashp.osexp","C:/Users/lev/Documents","no","mono","no","18","no","white","no","yes","768","4","2","C:/Users/lev/Documents/L07HO.csv","PRF","SG","FUT","41","Kafkaesque Koffka","3.2.7","0","5","space","5","NA","1231","139566","1231","NA","2","Папа придёт поздно, если вечером будет снег.","1024","2","48000","-16","experiment","IMP","PL","FUT","ovs","7","odd","160550","142062","NA","2490","160552","NA","2495","103687","NA","164599","2495","164519","163285","160552","122000","163285","NA","103687","NA","New experiment","0","256135","10","yes","1024","7"
"undefined","undefined","23331.5454545","23331.5454545","black","legacy","15esli","0","esli","NA","uniform","undefined","undefined","undefined","8","0","0","0","8","NA","0","0","0","8","2","8","8","8","1","8","0","0","0","12/08/19 18:02:14","The main experiment item","yes","tmp110oashp.osexp","C:/Users/lev/Documents","no","mono","no","18","no","white","no","yes","768","5","2","C:/Users/lev/Documents/L07HO.csv","PRF","SG","PST","30","Kafkaesque Koffka","3.2.7","0","1","space","1","NA","512","139566","512","NA","2","Учитель поинтересовался, если ученики выполнили задание.","1024","2","48000","-16","experiment","PRF","PL","PST","svo","7","odd","165077","142062","NA","2490","165079","NA","2495","103687","NA","169230","2495","169150","168636","165079","122000","168636","NA","103687","NA","New experiment","0","256647","11","yes","1024","6"
"undefined","undefined","21446.1666667","21446.1666667","black","legacy","3li","0","li","NA","uniform","undefined","undefined","undefined","9","0","0","0","9","NA","0","0","0","9","2","9","9","9","1","9","0","0","0","12/08/19 18:02:14","The main experiment item","yes","tmp110oashp.osexp","C:/Users/lev/Documents","no","mono","no","18","no","white","no","yes","768","6","2","C:/Users/lev/Documents/L07HO.csv","IMP","PL","PST","5","Kafkaesque Koffka","3.2.7","0","5","space","5","NA","707","139566","707","NA","2","Туристы сомневались, будет ли вечером дождь.","1024","2","48000","-16","experiment","IMP","SG","FUT","vs","7","odd","169653","142062","NA","2490","169655","NA","2495","103687","NA","173186","2495","173105","172396","169656","122000","172396","NA","103687","NA","New experiment","0","257354","12","yes","1024","6"
"undefined","undefined","19908.6923077","19908.6923077","black","legacy","6distr","0","distr","NA","uniform","undefined","undefined","undefined","10","0","0","0","10","NA","0","0","0","10","2","10","10","10","1","10","0","0","0","12/08/19 18:02:14","The main experiment item","yes","tmp110oashp.osexp","C:/Users/lev/Documents","no","mono","no","18","no","white","no","yes","768","7","2","C:/Users/lev/Documents/L07HO.csv","PRF","SG","FUT","46","Kafkaesque Koffka","3.2.7","0","5","space","5","NA","1459","139566","1459","NA","2","Женя пойдёт гулять, если его позовут.","1024","2","48000","-16","experiment","PRF","SG","FUT","ov","7","odd","173587","142062","NA","2490","173589","NA","2495","103687","NA","177646","2495","177566","176105","173589","122000","176105","NA","103687","NA","New experiment","0","258813","13","yes","1024","6"
"undefined","undefined","18567.1428571","18567.1428571","black","legacy","6esli","0","esli","NA","uniform","undefined","undefined","undefined","11","0","0","0","11","NA","0","0","0","11","2","11","11","11","1","11","0","0","0","12/08/19 18:02:14","The main experiment item","yes","tmp110oashp.osexp","C:/Users/lev/Documents","no","mono","no","18","no","white","no","yes","768","8","2","C:/Users/lev/Documents/L07HO.csv","PRF","SG","PST","12","Kafkaesque Koffka","3.2.7","0","1","space","1","NA","1127","139566","1127","NA","2","Лена задумалась, если ей понравились подарки.","1024","2","48000","-16","experiment","PRF","PL","PST","ovs","7","odd","178085","142062","NA","2490","178087","NA","2495","103687","NA","182246","2495","182166","181037","178087","122000","181036","NA","103687","NA","New experiment","0","259940","14","yes","1024","6"
"undefined","undefined","17362.9333333","17362.9333333","black","legacy","20li","0","li","NA","uniform","undefined","undefined","undefined","12","0","0","0","12","NA","0","0","0","12","2","12","12","12","1","12","0","0","0","12/08/19 18:02:14","The main experiment item","yes","tmp110oashp.osexp","C:/Users/lev/Documents","no","mono","no","18","no","white","no","yes","768","9","2","C:/Users/lev/Documents/L07HO.csv","PRF","SG","PST","39","Kafkaesque Koffka","3.2.7","0","5","space","5","NA","504","139566","504","NA","2","Коля задумался, остались ли в доме конфеты","1024","2","48000","-16","experiment","PRF","PL","PST","vos","7","odd","182698","142062","NA","2490","182700","NA","2495","103687","NA","186273","2495","186193","185686","182700","122000","185686","NA","103687","NA","New experiment","0","260444","15","yes","1024","7"
"undefined","undefined","16297.75","16297.75","black","legacy","5li","0","li","NA","uniform","undefined","undefined","undefined","13","0","0","0","13","NA","0","0","0","13","2","13","13","13","1","13","0","0","0","12/08/19 18:02:14","The main experiment item","yes","tmp110oashp.osexp","C:/Users/lev/Documents","no","mono","no","18","no","white","no","yes","768","10","2","C:/Users/lev/Documents/L07HO.csv","PRF","PL","PST","9","Kafkaesque Koffka","3.2.7","0","5","space","5","NA","320","139566","320","NA","2","Ученики забыли, будут ли завтра занятия.","1024","2","48000","-16","experiment","IMP","PL","FUT","vs","7","odd","186802","142062","NA","2490","186804","NA","2495","103687","NA","189988","2495","189908","189586","186804","122000","189585","NA","103687","NA","New experiment","0","260764","16","yes","1024","6"
"undefined","undefined","15410.2941176","15410.2941176","black","legacy","11esli","0","esli","NA","uniform","undefined","undefined","undefined","14","0","0","0","14","NA","0","0","0","14","2","14","14","14","1","14","0","0","0","12/08/19 18:02:14","The main experiment item","yes","tmp110oashp.osexp","C:/Users/lev/Documents","no","mono","no","18","no","white","no","yes","768","11","2","C:/Users/lev/Documents/L07HO.csv","IMP","PL","PST","22","Kafkaesque Koffka","3.2.7","0","1","space","1","NA","1211","139566","1211","NA","2","Внуки узнавали, если летом приедет бабушка. ","1024","2","48000","-16","experiment","PRF","SG","FUT","ovs","7","odd","190533","142062","NA","2490","190535","NA","2495","103687","NA","194810","2495","194730","193516","190535","122000","193516","NA","103687","NA","New experiment","0","261975","17","yes","1024","6"
"undefined","undefined","14581","14581","black","legacy","9li","0","li","NA","uniform","undefined","undefined","undefined","15","0","0","0","15","NA","0","0","0","15","2","15","15","15","1","15","0","0","0","12/08/19 18:02:14","The main experiment item","yes","tmp110oashp.osexp","C:/Users/lev/Documents","no","mono","no","18","no","white","no","yes","768","12","2","C:/Users/lev/Documents/L07HO.csv","PRF","SG","PST","17","Kafkaesque Koffka","3.2.7","0","5","space","5","NA","483","139566","483","NA","2","Катя проверила, не забыла ли она перчатки.","1024","2","48000","-16","experiment","PRF","SG","PST","vso","7","odd","195211","142062","NA","2490","195213","NA","2495","103687","NA","198452","2495","198372","197887","195214","122000","197886","NA","103687","NA","New experiment","0","262458","18","yes","1024","7"
"undefined","undefined","13960.7368421","13960.7368421","black","legacy","19esli","0","esli","NA","uniform","undefined","undefined","undefined","16","0","0","0","16","NA","0","0","0","16","2","16","16","16","1","16","0","0","0","12/08/19 18:02:14","The main experiment item","yes","tmp110oashp.osexp","C:/Users/lev/Documents","no","mono","no","18","no","white","no","yes","768","13","2","C:/Users/lev/Documents/L07HO.csv","PRF","PL","PST","38","Kafkaesque Koffka","3.2.7","0","2","space","2","NA","2796","139566","2796","NA","2","Соседи не сказали, если они полили цветы.","1024","2","48000","-16","experiment","PRF","PL","PST","svo","7","odd","198887","142062","NA","2490","198889","NA","2495","103687","NA","204564","2495","204484","201685","198889","122000","201685","NA","103687","NA","New experiment","0","265254","19","yes","1024","7"
"undefined","undefined","13294.8","13294.8","black","legacy","8distr","0","distr","NA","uniform","undefined","undefined","undefined","17","0","0","0","17","NA","0","0","0","17","2","17","17","17","1","17","0","0","0","12/08/19 18:02:14","The main experiment item","yes","tmp110oashp.osexp","C:/Users/lev/Documents","no","mono","no","18","no","white","no","yes","768","14","2","C:/Users/lev/Documents/L07HO.csv","PRF","SG","FUT","48","Kafkaesque Koffka","3.2.7","0","5","space","5","NA","642","139566","642","NA","2","Мама съест пирожное, если оно будет вкусным.","1024","2","48000","-16","experiment","IMP","SG","FUT","sv","7","odd","205000","142062","NA","2490","205002","NA","2495","103687","NA","208720","2495","208640","207995","205003","122000","207995","NA","103687","NA","New experiment","0","265896","20","yes","1024","7"
"undefined","undefined","12688.3333333","12688.3333333","black","legacy","4distr","0","distr","NA","uniform","undefined","undefined","undefined","18","0","0","0","18","NA","0","0","0","18","2","18","18","18","1","18","0","0","0","12/08/19 18:02:14","The main experiment item","yes","tmp110oashp.osexp","C:/Users/lev/Documents","no","mono","no","18","no","white","no","yes","768","15","2","C:/Users/lev/Documents/L07HO.csv","PRF","SG","FUT","44","Kafkaesque Koffka","3.2.7","0","5","space","5","NA","559","139566","559","NA","2","Витя помоет посуду, если доделает уроки.","1024","2","48000","-16","experiment","PRF","SG","FUT","(s)vo","7","odd","209164","142062","NA","2490","209166","NA","2495","103687","NA","212738","2495","212658","212096","209166","122000","212096","NA","103687","NA","New experiment","0","266455","21","yes","1024","6"
"undefined","undefined","12127.0454545","12127.0454545","black","legacy","10li","0","li","NA","uniform","undefined","undefined","undefined","19","0","0","0","19","NA","0","0","0","19","2","19","19","19","1","19","0","0","0","12/08/19 18:02:14","The main experiment item","yes","tmp110oashp.osexp","C:/Users/lev/Documents","no","mono","no","18","no","white","no","yes","768","16","2","C:/Users/lev/Documents/L07HO.csv","IMP","PL","PST","19","Kafkaesque Koffka","3.2.7","0","5","space","5","NA","340","139566","340","NA","2","Они интересовались, написали ли журналисты про выборы.","1024","2","48000","-16","experiment","PRF","PL","PST","vso","7","odd","213221","142062","NA","2490","213223","NA","2495","103687","NA","216889","2495","216809","216465","213223","122000","216465","NA","103687","NA","New experiment","0","266795","22","yes","1024","7"
"undefined","undefined","11611.6086957","11611.6086957","black","legacy","9distr","0","distr","NA","uniform","undefined","undefined","undefined","20","0","0","0","20","NA","0","0","0","20","2","20","20","20","1","20","0","0","0","12/08/19 18:02:14","The main experiment item","yes","tmp110oashp.osexp","C:/Users/lev/Documents","no","mono","no","18","no","white","no","yes","768","17","2","C:/Users/lev/Documents/L07HO.csv","PRF","SG","FUT","49","Kafkaesque Koffka","3.2.7","0","5","space","5","NA","272","139566","272","NA","2","Маша позвонит другу, если он будет дома.","1024","2","48000","-16","experiment","IMP","SG","FUT","svo","7","odd","217330","142062","NA","2490","217332","NA","2495","103687","NA","220489","2495","220409","220135","217333","122000","220135","NA","103687","NA","New experiment","0","267067","23","yes","1024","7"
"undefined","undefined","11158.25","11158.25","black","legacy","13esli","0","esli","NA","uniform","undefined","undefined","undefined","21","0","0","0","21","NA","0","0","0","21","2","21","21","21","1","21","0","0","0","12/08/19 18:02:14","The main experiment item","yes","tmp110oashp.osexp","C:/Users/lev/Documents","no","mono","no","18","no","white","no","yes","768","18","2","C:/Users/lev/Documents/L07HO.csv","PRF","SG","PST","26","Kafkaesque Koffka","3.2.7","0","1","space","1","NA","731","139566","731","NA","2","Витя забыл, если во вторник будет игра.","1024","2","48000","-16","experiment","IMP","SG","FUT","ovs","7","odd","220923","142062","NA","2490","220925","NA","2495","103687","NA","224299","2495","224219","223485","220925","122000","223485","NA","103687","NA","New experiment","0","267798","24","yes","1024","7"
"undefined","undefined","10729.68","10729.68","black","legacy","7li","0","li","NA","uniform","undefined","undefined","undefined","22","0","0","0","22","NA","0","0","0","22","2","22","22","22","1","22","0","0","0","12/08/19 18:02:14","The main experiment item","yes","tmp110oashp.osexp","C:/Users/lev/Documents","no","mono","no","18","no","white","no","yes","768","19","2","C:/Users/lev/Documents/L07HO.csv","PRF","PL","PST","13","Kafkaesque Koffka","3.2.7","0","5","space","5","NA","444","139566","444","NA","2","Братья не сказали, покормили ли они собаку.","1024","2","48000","-16","experiment","PRF","PL","PST","vso","7","odd","224733","142062","NA","2490","224735","NA","2495","103687","NA","228192","2495","228112","227665","224735","122000","227664","NA","103687","NA","New experiment","0","268242","25","yes","1024","7"
"undefined","undefined","10324.1538462","10324.1538462","black","legacy","7distr","0","distr","NA","uniform","undefined","undefined","undefined","23","0","0","0","23","NA","0","0","0","23","2","23","23","23","1","23","0","0","0","12/08/19 18:02:14","The main experiment item","yes","tmp110oashp.osexp","C:/Users/lev/Documents","no","mono","no","18","no","white","no","yes","768","20","2","C:/Users/lev/Documents/L07HO.csv","PRF","SG","FUT","47","Kafkaesque Koffka","3.2.7","0","5","space","5","NA","186","139566","186","NA","2","Рита останется дома, если сильно заболеет.","1024","2","48000","-16","experiment","PRF","SG","FUT","(s)ov","7","odd","228634","142062","NA","2490","228637","NA","2495","103687","NA","231863","2495","231783","231595","228637","122000","231595","NA","103687","NA","New experiment","0","268428","26","yes","1024","6"
"undefined","undefined","9977.14814815","9977.14814815","black","legacy","16esli","0","esli","NA","uniform","undefined","undefined","undefined","24","0","0","0","24","NA","0","0","0","24","2","24","24","24","1","24","0","0","0","12/08/19 18:02:14","The main experiment item","yes","tmp110oashp.osexp","C:/Users/lev/Documents","no","mono","no","18","no","white","no","yes","768","21","2","C:/Users/lev/Documents/L07HO.csv","IMP","PL","PST","32","Kafkaesque Koffka","3.2.7","0","1","space","1","NA","955","139566","955","NA","2","Родители сомневалась, если Даня помыл посуду.","1024","2","48000","-16","experiment","PRF","SG","PST","svo","7","odd","232314","142062","NA","2490","232316","NA","2495","103687","NA","236362","2495","236282","235325","232316","122000","235324","NA","103687","NA","New experiment","0","269383","27","yes","1024","6"
"undefined","undefined","9636.32142857","9636.32142857","black","legacy","5distr","0","distr","NA","uniform","undefined","undefined","undefined","25","0","0","0","25","NA","0","0","0","25","2","25","25","25","1","25","0","0","0","12/08/19 18:02:14","The main experiment item","yes","tmp110oashp.osexp","C:/Users/lev/Documents","no","mono","no","18","no","white","no","yes","768","22","2","C:/Users/lev/Documents/L07HO.csv","PRF","SG","FUT","45","Kafkaesque Koffka","3.2.7","0","5","space","5","NA","434","139566","434","NA","2","Саша доест яблоко, если оно будет сладким.","1024","2","48000","-16","experiment","IMP","SG","FUT","sv","7","odd","236807","142062","NA","2490","236809","NA","2495","103687","NA","240301","2495","240221","239785","236809","122000","239785","NA","103687","NA","New experiment","0","269817","28","yes","1024","7"
"undefined","undefined","9329.4137931","9329.4137931","black","legacy","14esli","0","esli","NA","uniform","undefined","undefined","undefined","26","0","0","0","26","NA","0","0","0","26","2","26","26","26","1","26","0","0","0","12/08/19 18:02:14","The main experiment item","yes","tmp110oashp.osexp","C:/Users/lev/Documents","no","mono","no","18","no","white","no","yes","768","23","2","C:/Users/lev/Documents/L07HO.csv","IMP","PL","PST","28","Kafkaesque Koffka","3.2.7","0","1","space","1","NA","736","139566","736","NA","2","Мальчики не знали, если друзья принесли торт.","1024","2","48000","-16","experiment","PRF","PL","PST","svo","7","odd","240729","142062","NA","2490","240731","NA","2495","103687","NA","244424","2495","244344","243605","240731","122000","243605","NA","103687","NA","New experiment","0","270553","29","yes","1024","7"
"undefined","undefined","9032.73333333","9032.73333333","black","legacy","2distr","0","distr","NA","uniform","undefined","undefined","undefined","27","0","0","0","27","NA","0","0","0","27","2","27","27","27","1","27","0","0","0","12/08/19 18:02:14","The main experiment item","yes","tmp110oashp.osexp","C:/Users/lev/Documents","no","mono","no","18","no","white","no","yes","768","24","2","C:/Users/lev/Documents/L07HO.csv","PRF","SG","FUT","42","Kafkaesque Koffka","3.2.7","0","5","space","5","NA","429","139566","429","NA","2","Вася купит картошку, если придёт зарплата.","1024","2","48000","-16","experiment","PRF","SG","FUT","vs","7","odd","244859","142062","NA","2490","244861","NA","2495","103687","NA","248237","2495","248157","247725","244861","122000","247725","NA","103687","NA","New experiment","0","270982","30","yes","1024","6"
"undefined","undefined","8754.70967742","8754.70967742","black","legacy","4li","0","li","NA","uniform","undefined","undefined","undefined","28","0","0","0","28","NA","0","0","0","28","2","28","28","28","1","28","0","0","0","12/08/19 18:02:14","The main experiment item","yes","tmp110oashp.osexp","C:/Users/lev/Documents","no","mono","no","18","no","white","no","yes","768","25","2","C:/Users/lev/Documents/L07HO.csv","PRF","SG","PST","7","Kafkaesque Koffka","3.2.7","0","5","space","5","NA","414","139566","414","NA","2","Петя спросил, смотрел ли Вася кино.","1024","2","48000","-16","experiment","IMP","SG","PST","vso","7","odd","248652","142062","NA","2490","248654","NA","2495","103687","NA","251481","2495","251401","250985","248654","122000","250985","NA","103687","NA","New experiment","0","271396","31","yes","1024","6"
"undefined","undefined","8536.59375","8536.59375","black","legacy","17esli","0","esli","NA","uniform","undefined","undefined","undefined","29","0","0","0","29","NA","0","0","0","29","2","29","29","29","1","29","0","0","0","12/08/19 18:02:14","The main experiment item","yes","tmp110oashp.osexp","C:/Users/lev/Documents","no","mono","no","18","no","white","no","yes","768","26","2","C:/Users/lev/Documents/L07HO.csv","PRF","SG","PST","34","Kafkaesque Koffka","3.2.7","0","2","space","2","NA","1775","139566","1775","NA","2","Вася не решил, если он купит газету.","1024","2","48000","-16","experiment","PRF","SG","FUT","svo","7","odd","251898","142062","NA","2490","251900","NA","2495","103687","NA","256363","2495","256283","254506","251900","122000","254505","NA","103687","NA","New experiment","0","273171","32","yes","1024","7"
