"acc","accuracy","average_response_time","avg_rt","background","canvas_backend","coding","compensation","condition","conditon","coordinates","correct","correct_next","correct_response_1","count_exp_sequence","count_exp_sequence1","count_exp_sequence2","count_experiment","count_fixation","count_getting_started","count_instr","count_list1","count_list2","count_logger","count_next","count_pause","count_response_1","count_sound","count_start_exp","count_task","count_thanks","count_training1","count_training2","datetime","description","disable_garbage_collection","experiment_file","experiment_path","font_bold","font_family","font_italic","font_size","font_underline","foreground","form_clicks","fullscreen","height","live_row","live_row_training2","logfile","main_asp","main_num","main_tense","num","opensesame_codename","opensesame_version","repeat_cycle","response","response_next","response_response_1","response_thanks","response_time","response_time_next","response_time_response_1","response_time_thanks","round_decimals","sentence_rus","sound_buf_size","sound_channels","sound_freq","sound_sample_size","start","sub_asp","sub_num","sub_tense","sub_wo","subject_nr","subject_parity","time_exp_sequence","time_exp_sequence1","time_exp_sequence2","time_experiment","time_fixation","time_getting_started","time_instr","time_list1","time_list2","time_logger","time_next","time_pause","time_response_1","time_sound","time_start_exp","time_task","time_thanks","time_training1","time_training2","title","total_correct","total_response_time","total_responses","uniform_coordinates","width","word_count"
"undefined","undefined","320853.5","320853.5","black","legacy","10distr","0","distr","NA","uniform","undefined","undefined","undefined","0","0","0","0","0","NA","0","0","0","0","2","0","0","0","1","0","0","0","0","Tue Dec 10 05:27:23 2019","The main experiment item","yes","liesli (2).osexp","C:/Users/sonja/OneDrive/EMCL+/Linglab/experiment","no","mono","no","18","no","white","no","yes","768","0","0","C:/Users/sonja/OneDrive/EMCL+/Linglab/experiment/L12HY.csv","PRF","SG","FUT","50","Kafkaesque Koffka","3.2.7","0","4","space","4","NA","2815","638892","2815","NA","2","Дима проверит почту, если компьютер включится.","1024","2","48000","-16","experiment","PRF","SG","FUT","sv","12","even","641089","NA","NA","1965","641091","NA","1967","NA","640860","647011","1968","646930","644114","641091","NA","644114","NA","NA","640860","New experiment","0","641707","2","yes","1024","6"
"undefined","undefined","214343","214343","black","legacy","2esli","0","esli","NA","uniform","undefined","undefined","undefined","1","0","0","0","1","NA","0","0","0","1","2","1","1","1","1","1","0","0","0","Tue Dec 10 05:27:23 2019","The main experiment item","yes","liesli (2).osexp","C:/Users/sonja/OneDrive/EMCL+/Linglab/experiment","no","mono","no","18","no","white","no","yes","768","1","1","C:/Users/sonja/OneDrive/EMCL+/Linglab/experiment/L12HY.csv","PRF","PL","PST","4","Kafkaesque Koffka","3.2.7","0","2","space","2","NA","1322","638892","1322","NA","2","Гости не сообщили, если они приедут.","1024","2","48000","-16","experiment","PRF","PL","FUT","so","12","even","647255","NA","NA","1965","647256","NA","1967","NA","640860","651278","1968","651198","649874","647256","NA","649874","NA","NA","640860","New experiment","0","643029","3","yes","1024","6"
"undefined","undefined","161154.75","161154.75","black","legacy","12li","0","li","NA","uniform","undefined","undefined","undefined","2","0","0","0","2","NA","0","0","0","2","2","2","2","2","1","2","0","0","0","Tue Dec 10 05:27:23 2019","The main experiment item","yes","liesli (2).osexp","C:/Users/sonja/OneDrive/EMCL+/Linglab/experiment","no","mono","no","18","no","white","no","yes","768","2","2","C:/Users/sonja/OneDrive/EMCL+/Linglab/experiment/L12HY.csv","PRF","SG","PST","23","Kafkaesque Koffka","3.2.7","0","5","space","5","NA","1590","638892","1590","NA","2","Нина спросила, поели ли дети.","1024","2","48000","-16","experiment","PRF","PL","PST","vos","12","even","651498","NA","NA","1965","651500","NA","1967","NA","640860","655347","1968","655266","653675","651500","NA","653675","NA","NA","640860","New experiment","0","644619","4","yes","1024","5"
"undefined","undefined","228762","228762","black","legacy","8esli","0","li","esli","uniform","undefined","undefined","undefined","3","0","0","0","3","NA","0","0","0","3","2","3","3","3","1","3","0","0","0","Tue Dec 10 05:27:23 2019","The main experiment item","yes","liesli (2).osexp","C:/Users/sonja/OneDrive/EMCL+/Linglab/experiment","no","mono","no","18","no","white","no","yes","768","0","2","C:/Users/sonja/OneDrive/EMCL+/Linglab/experiment/L12HY.csv","PRF","SG","PST","16","Kafkaesque Koffka","3.2.7","0","1","space","1","NA","3377","724576","3377","NA","2","Миша уточнил, если на обед будет суп.","1024","2","48000","-16","experiment","IMP","SG","FUT","ovs","12","even","726743","NA","726544","1965","726745","NA","1967","NA","640860","732784","1968","732704","729325","726745","655374","729325","NA","NA","640860","New experiment","0","1372572","6","yes","1024","7"
"undefined","undefined","196440","196440","black","legacy","1esli","0","li","esli","uniform","undefined","undefined","undefined","4","0","0","0","4","NA","0","0","0","4","2","4","4","4","1","4","0","0","0","Tue Dec 10 05:27:23 2019","The main experiment item","yes","liesli (2).osexp","C:/Users/sonja/OneDrive/EMCL+/Linglab/experiment","no","mono","no","18","no","white","no","yes","768","1","2","C:/Users/sonja/OneDrive/EMCL+/Linglab/experiment/L12HY.csv","IMP","SG","PST","2","Kafkaesque Koffka","3.2.7","0","2","space","2","NA","2508","724576","2508","NA","2","Саша не знала, если дети придут домой.","1024","2","48000","-16","experiment","PRF","PL","FUT","svo","12","even","733023","NA","726544","1965","733025","NA","1967","NA","640860","738374","1968","738294","735784","733025","655374","735784","NA","NA","640860","New experiment","0","1375080","7","yes","1024","7"
"undefined","undefined","171929.25","171929.25","black","legacy","18li","0","li","li","uniform","undefined","undefined","undefined","5","0","0","0","5","NA","0","0","0","5","2","5","5","5","1","5","0","0","0","Tue Dec 10 05:27:23 2019","The main experiment item","yes","liesli (2).osexp","C:/Users/sonja/OneDrive/EMCL+/Linglab/experiment","no","mono","no","18","no","white","no","yes","768","2","2","C:/Users/sonja/OneDrive/EMCL+/Linglab/experiment/L12HY.csv","PRF","PL","PST","35","Kafkaesque Koffka","3.2.7","0","5","space","5","NA","354","724576","354","NA","2","Хозяева уточнили, выключила ли Маша плиту.","1024","2","48000","-16","experiment","PRF","SG","PST","vso","12","even","738624","NA","726544","1965","738626","NA","1967","NA","640860","742110","1968","742030","741674","738626","655374","741674","NA","NA","640860","New experiment","0","1375434","8","yes","1024","6"
"undefined","undefined","152947.44444444444","152947.44444444444","black","legacy","3distr","0","li","distr","uniform","undefined","undefined","undefined","6","0","0","0","6","NA","0","0","0","6","2","6","6","6","1","6","0","0","0","Tue Dec 10 05:27:23 2019","The main experiment item","yes","liesli (2).osexp","C:/Users/sonja/OneDrive/EMCL+/Linglab/experiment","no","mono","no","18","no","white","no","yes","768","3","2","C:/Users/sonja/OneDrive/EMCL+/Linglab/experiment/L12HY.csv","PRF","SG","FUT","43","Kafkaesque Koffka","3.2.7","0","5","space","5","NA","1093","724576","1093","NA","2","Таня посмотрит новости, если заработает телевизор.","1024","2","48000","-16","experiment","PRF","SG","FUT","vs","12","even","742370","NA","726544","1965","742371","NA","1967","NA","640860","746729","1968","746649","745554","742371","655374","745554","NA","NA","640860","New experiment","0","1376527","9","yes","1024","6"
"undefined","undefined","137786.7","137786.7","black","legacy","1distr","0","li","distr","uniform","undefined","undefined","undefined","7","0","0","0","7","NA","0","0","0","7","2","7","7","7","1","7","0","0","0","Tue Dec 10 05:27:23 2019","The main experiment item","yes","liesli (2).osexp","C:/Users/sonja/OneDrive/EMCL+/Linglab/experiment","no","mono","no","18","no","white","no","yes","768","4","2","C:/Users/sonja/OneDrive/EMCL+/Linglab/experiment/L12HY.csv","PRF","SG","FUT","41","Kafkaesque Koffka","3.2.7","0","5","space","5","NA","1340","724576","1340","NA","2","Папа придёт поздно, если вечером будет снег.","1024","2","48000","-16","experiment","IMP","PL","FUT","ovs","12","even","746978","NA","726544","1965","746980","NA","1967","NA","640860","751136","1968","751056","749714","746980","655374","749714","NA","NA","640860","New experiment","0","1377867","10","yes","1024","7"
"undefined","undefined","125284.27272727272","125284.27272727272","black","legacy","15li","0","li","li","uniform","undefined","undefined","undefined","8","0","0","0","8","NA","0","0","0","8","2","8","8","8","1","8","0","0","0","Tue Dec 10 05:27:23 2019","The main experiment item","yes","liesli (2).osexp","C:/Users/sonja/OneDrive/EMCL+/Linglab/experiment","no","mono","no","18","no","white","no","yes","768","5","2","C:/Users/sonja/OneDrive/EMCL+/Linglab/experiment/L12HY.csv","PRF","SG","PST","29","Kafkaesque Koffka","3.2.7","0","5","space","5","NA","260","724576","260","NA","2","Учитель поинтересовался, выполнили ли ученики задание.","1024","2","48000","-16","experiment","PRF","PL","PST","vso","12","even","751424","NA","726544","1965","751426","NA","1967","NA","640860","755457","1968","755377","755115","751426","655374","755115","NA","NA","640860","New experiment","0","1378127","11","yes","1024","6"
"undefined","undefined","114899","114899","black","legacy","3esli","0","li","esli","uniform","undefined","undefined","undefined","9","0","0","0","9","NA","0","0","0","9","2","9","9","9","1","9","0","0","0","Tue Dec 10 05:27:23 2019","The main experiment item","yes","liesli (2).osexp","C:/Users/sonja/OneDrive/EMCL+/Linglab/experiment","no","mono","no","18","no","white","no","yes","768","6","2","C:/Users/sonja/OneDrive/EMCL+/Linglab/experiment/L12HY.csv","IMP","PL","PST","6","Kafkaesque Koffka","3.2.7","0","1","space","1","NA","661","724576","661","NA","2","Туристы сомневались, если вечером будет дождь.","1024","2","48000","-16","experiment","IMP","SG","FUT","vs","12","even","755701","NA","726544","1965","755702","NA","1967","NA","640860","759378","1968","759297","758635","755702","655374","758635","NA","NA","640860","New experiment","0","1378788","12","yes","1024","6"
"undefined","undefined","106198.84615384616","106198.84615384616","black","legacy","6distr","0","li","distr","uniform","undefined","undefined","undefined","10","0","0","0","10","NA","0","0","0","10","2","10","10","10","1","10","0","0","0","Tue Dec 10 05:27:23 2019","The main experiment item","yes","liesli (2).osexp","C:/Users/sonja/OneDrive/EMCL+/Linglab/experiment","no","mono","no","18","no","white","no","yes","768","7","2","C:/Users/sonja/OneDrive/EMCL+/Linglab/experiment/L12HY.csv","PRF","SG","FUT","46","Kafkaesque Koffka","3.2.7","0","5","space","5","NA","1797","724576","1797","NA","2","Женя пойдёт гулять, если его позовут.","1024","2","48000","-16","experiment","PRF","SG","FUT","ov","12","even","759611","NA","726544","1965","759613","NA","1967","NA","640860","763993","1968","763913","762114","759613","655374","762114","NA","NA","640860","New experiment","0","1380585","13","yes","1024","6"
"undefined","undefined","98636.21428571429","98636.21428571429","black","legacy","6li","0","li","li","uniform","undefined","undefined","undefined","11","0","0","0","11","NA","0","0","0","11","2","11","11","11","1","11","0","0","0","Tue Dec 10 05:27:23 2019","The main experiment item","yes","liesli (2).osexp","C:/Users/sonja/OneDrive/EMCL+/Linglab/experiment","no","mono","no","18","no","white","no","yes","768","8","2","C:/Users/sonja/OneDrive/EMCL+/Linglab/experiment/L12HY.csv","PRF","SG","PST","11","Kafkaesque Koffka","3.2.7","0","5","space","5","NA","322","724576","322","NA","2","Лена задумалась, понравились ли ей подарки.","1024","2","48000","-16","experiment","PRF","PL","PST","vos","12","even","764248","NA","726544","1965","764250","NA","1967","NA","640860","767468","1968","767388","767064","764250","655374","767064","NA","NA","640860","New experiment","0","1380907","14","yes","1024","6"
"undefined","undefined","92081.8","92081.8","black","legacy","20esli","0","li","esli","uniform","undefined","undefined","undefined","12","0","0","0","12","NA","0","0","0","12","2","12","12","12","1","12","0","0","0","Tue Dec 10 05:27:23 2019","The main experiment item","yes","liesli (2).osexp","C:/Users/sonja/OneDrive/EMCL+/Linglab/experiment","no","mono","no","18","no","white","no","yes","768","9","2","C:/Users/sonja/OneDrive/EMCL+/Linglab/experiment/L12HY.csv","PRF","SG","PST","40","Kafkaesque Koffka","3.2.7","0","1","space","1","NA","320","724576","320","NA","2","Коля задумался, если в доме остались конфеты.","1024","2","48000","-16","experiment","PRF","PL","PST","ovs","12","even","767730","NA","726544","1965","767731","NA","1967","NA","640860","771087","1968","771007","770685","767731","655374","770685","NA","NA","640860","New experiment","0","1381227","15","yes","1024","7"
"undefined","undefined","86456.5625","86456.5625","black","legacy","5esli","0","li","esli","uniform","undefined","undefined","undefined","13","0","0","0","13","NA","0","0","0","13","2","13","13","13","1","13","0","0","0","Tue Dec 10 05:27:23 2019","The main experiment item","yes","liesli (2).osexp","C:/Users/sonja/OneDrive/EMCL+/Linglab/experiment","no","mono","no","18","no","white","no","yes","768","10","2","C:/Users/sonja/OneDrive/EMCL+/Linglab/experiment/L12HY.csv","PRF","PL","PST","10","Kafkaesque Koffka","3.2.7","0","2","space","2","NA","2078","724576","2078","NA","2","Ученики забыли, если завтра будут занятия.","1024","2","48000","-16","experiment","IMP","PL","FUT","vo","12","even","771333","NA","726544","1965","771335","NA","1967","NA","640860","776416","1968","776336","774256","771335","655374","774256","NA","NA","640860","New experiment","0","1383305","16","yes","1024","6"
"undefined","undefined","81385","81385","black","legacy","11li","0","li","li","uniform","undefined","undefined","undefined","14","0","0","0","14","NA","0","0","0","14","2","14","14","14","1","14","0","0","0","Tue Dec 10 05:27:23 2019","The main experiment item","yes","liesli (2).osexp","C:/Users/sonja/OneDrive/EMCL+/Linglab/experiment","no","mono","no","18","no","white","no","yes","768","11","2","C:/Users/sonja/OneDrive/EMCL+/Linglab/experiment/L12HY.csv","IMP","PL","PST","21","Kafkaesque Koffka","3.2.7","0","5","space","5","NA","240","724576","240","NA","2","Внуки узнавали, приедет ли летом бабушка. ","1024","2","48000","-16","experiment","PRF","SG","FUT","vos","12","even","776695","NA","726544","1965","776697","NA","1967","NA","640860","779737","1968","779657","779415","776697","655374","779415","NA","NA","640860","New experiment","0","1383545","17","yes","1024","6"
"undefined","undefined","76873.44444444444","76873.44444444444","black","legacy","9esli","0","li","esli","uniform","undefined","undefined","undefined","15","0","0","0","15","NA","0","0","0","15","2","15","15","15","1","15","0","0","0","Tue Dec 10 05:27:23 2019","The main experiment item","yes","liesli (2).osexp","C:/Users/sonja/OneDrive/EMCL+/Linglab/experiment","no","mono","no","18","no","white","no","yes","768","12","2","C:/Users/sonja/OneDrive/EMCL+/Linglab/experiment/L12HY.csv","PRF","SG","PST","18","Kafkaesque Koffka","3.2.7","0","1","space","1","NA","177","724576","177","NA","2","Катя проверила, если она не забыла перчатки.","1024","2","48000","-16","experiment","PRF","SG","PST","svo","12","even","780003","NA","726544","1965","780004","NA","1967","NA","640860","783213","1968","783133","782954","780004","655374","782954","NA","NA","640860","New experiment","0","1383722","18","yes","1024","7"
"undefined","undefined","72922.05263157895","72922.05263157895","black","legacy","19li","0","li","li","uniform","undefined","undefined","undefined","16","0","0","0","16","NA","0","0","0","16","2","16","16","16","1","16","0","0","0","Tue Dec 10 05:27:23 2019","The main experiment item","yes","liesli (2).osexp","C:/Users/sonja/OneDrive/EMCL+/Linglab/experiment","no","mono","no","18","no","white","no","yes","768","13","2","C:/Users/sonja/OneDrive/EMCL+/Linglab/experiment/L12HY.csv","PRF","PL","PST","37","Kafkaesque Koffka","3.2.7","0","4","space","4","NA","1797","724576","1797","NA","2","Соседи не сказали, полили ли они цветы.","1024","2","48000","-16","experiment","PRF","PL","PST","vso","12","even","783460","NA","726544","1965","783462","NA","1967","NA","640860","788203","1968","788122","786324","783462","655374","786324","NA","NA","640860","New experiment","0","1385519","19","yes","1024","7"
"undefined","undefined","69290.05","69290.05","black","legacy","8distr","0","li","distr","uniform","undefined","undefined","undefined","17","0","0","0","17","NA","0","0","0","17","2","17","17","17","1","17","0","0","0","Tue Dec 10 05:27:23 2019","The main experiment item","yes","liesli (2).osexp","C:/Users/sonja/OneDrive/EMCL+/Linglab/experiment","no","mono","no","18","no","white","no","yes","768","14","2","C:/Users/sonja/OneDrive/EMCL+/Linglab/experiment/L12HY.csv","PRF","SG","FUT","48","Kafkaesque Koffka","3.2.7","0","5","space","5","NA","282","724576","282","NA","2","Мама съест пирожное, если оно будет вкусным.","1024","2","48000","-16","experiment","IMP","SG","FUT","sv","12","even","788454","NA","726544","1965","788456","NA","1967","NA","640860","791808","1968","791728","791444","788456","655374","791444","NA","NA","640860","New experiment","0","1385801","20","yes","1024","7"
"undefined","undefined","66037.71428571429","66037.71428571429","black","legacy","4distr","0","li","distr","uniform","undefined","undefined","undefined","18","0","0","0","18","NA","0","0","0","18","2","18","18","18","1","18","0","0","0","Tue Dec 10 05:27:23 2019","The main experiment item","yes","liesli (2).osexp","C:/Users/sonja/OneDrive/EMCL+/Linglab/experiment","no","mono","no","18","no","white","no","yes","768","15","2","C:/Users/sonja/OneDrive/EMCL+/Linglab/experiment/L12HY.csv","PRF","SG","FUT","44","Kafkaesque Koffka","3.2.7","0","5","space","5","NA","991","724576","991","NA","2","Витя помоет посуду, если доделает уроки.","1024","2","48000","-16","experiment","PRF","SG","FUT","(s)vo","12","even","792065","NA","726544","1965","792067","NA","1967","NA","640860","796078","1968","795998","795005","792067","655374","795005","NA","NA","640860","New experiment","0","1386792","21","yes","1024","6"
"undefined","undefined","63176.454545454544","63176.454545454544","black","legacy","10esli","0","li","esli","uniform","undefined","undefined","undefined","19","0","0","0","19","NA","0","0","0","19","2","19","19","19","1","19","0","0","0","Tue Dec 10 05:27:23 2019","The main experiment item","yes","liesli (2).osexp","C:/Users/sonja/OneDrive/EMCL+/Linglab/experiment","no","mono","no","18","no","white","no","yes","768","16","2","C:/Users/sonja/OneDrive/EMCL+/Linglab/experiment/L12HY.csv","IMP","PL","PST","20","Kafkaesque Koffka","3.2.7","0","3","space","3","NA","3090","724576","3090","NA","2","Они интересовались, если журналисты написали про выборы.","1024","2","48000","-16","experiment","PRF","PL","PST","svo","12","even","796363","NA","726544","1965","796364","NA","1967","NA","640860","802896","1968","802816","799724","796364","655374","799724","NA","NA","640860","New experiment","0","1389882","22","yes","1024","7"
"undefined","undefined","60442.34782608696","60442.34782608696","black","legacy","9distr","0","li","distr","uniform","undefined","undefined","undefined","20","0","0","0","20","NA","0","0","0","20","2","20","20","20","1","20","0","0","0","Tue Dec 10 05:27:23 2019","The main experiment item","yes","liesli (2).osexp","C:/Users/sonja/OneDrive/EMCL+/Linglab/experiment","no","mono","no","18","no","white","no","yes","768","17","2","C:/Users/sonja/OneDrive/EMCL+/Linglab/experiment/L12HY.csv","PRF","SG","FUT","49","Kafkaesque Koffka","3.2.7","0","5","space","5","NA","292","724576","292","NA","2","Маша позвонит другу, если он будет дома.","1024","2","48000","-16","experiment","IMP","SG","FUT","svo","12","even","803153","NA","726544","1965","803155","NA","1967","NA","640860","806348","1968","806268","805974","803155","655374","805974","NA","NA","640860","New experiment","0","1390174","23","yes","1024","7"
"undefined","undefined","57996.541666666664","57996.541666666664","black","legacy","13li","0","li","li","uniform","undefined","undefined","undefined","21","0","0","0","21","NA","0","0","0","21","2","21","21","21","1","21","0","0","0","Tue Dec 10 05:27:23 2019","The main experiment item","yes","liesli (2).osexp","C:/Users/sonja/OneDrive/EMCL+/Linglab/experiment","no","mono","no","18","no","white","no","yes","768","18","2","C:/Users/sonja/OneDrive/EMCL+/Linglab/experiment/L12HY.csv","PRF","SG","PST","25","Kafkaesque Koffka","3.2.7","0","5","space","5","NA","1743","724576","1743","NA","2","Витя забыл, будет ли во вторник игра.","1024","2","48000","-16","experiment","IMP","SG","FUT","vo","12","even","806582","NA","726544","1965","806584","NA","1967","NA","640860","810700","1968","810620","808874","806584","655374","808874","NA","NA","640860","New experiment","0","1391917","24","yes","1024","7"
"undefined","undefined","55717.92","55717.92","black","legacy","7esli","0","li","esli","uniform","undefined","undefined","undefined","22","0","0","0","22","NA","0","0","0","22","2","22","22","22","1","22","0","0","0","Tue Dec 10 05:27:23 2019","The main experiment item","yes","liesli (2).osexp","C:/Users/sonja/OneDrive/EMCL+/Linglab/experiment","no","mono","no","18","no","white","no","yes","768","19","2","C:/Users/sonja/OneDrive/EMCL+/Linglab/experiment/L12HY.csv","PRF","PL","PST","14","Kafkaesque Koffka","3.2.7","0","4","space","4","NA","1031","724576","1031","NA","2","Братья не сказали, если они покормили собаку.","1024","2","48000","-16","experiment","PRF","PL","PST","svo","12","even","810973","NA","726544","1965","810975","NA","1967","NA","640860","815177","1968","815097","814064","810975","655374","814064","NA","NA","640860","New experiment","0","1392948","25","yes","1024","7"
"undefined","undefined","53583.88461538462","53583.88461538462","black","legacy","7distr","0","li","distr","uniform","undefined","undefined","undefined","23","0","0","0","23","NA","0","0","0","23","2","23","23","23","1","23","0","0","0","Tue Dec 10 05:27:23 2019","The main experiment item","yes","liesli (2).osexp","C:/Users/sonja/OneDrive/EMCL+/Linglab/experiment","no","mono","no","18","no","white","no","yes","768","20","2","C:/Users/sonja/OneDrive/EMCL+/Linglab/experiment/L12HY.csv","PRF","SG","FUT","47","Kafkaesque Koffka","3.2.7","0","5","space","5","NA","233","724576","233","NA","2","Рита останется дома, если сильно заболеет.","1024","2","48000","-16","experiment","PRF","SG","FUT","(s)ov","12","even","815440","NA","726544","1965","815442","NA","1967","NA","640860","818709","1968","818629","818394","815442","655374","818394","NA","NA","640860","New experiment","0","1393181","26","yes","1024","6"
"undefined","undefined","51610.88888888889","51610.88888888889","black","legacy","16li","0","li","li","uniform","undefined","undefined","undefined","24","0","0","0","24","NA","0","0","0","24","2","24","24","24","1","24","0","0","0","Tue Dec 10 05:27:23 2019","The main experiment item","yes","liesli (2).osexp","C:/Users/sonja/OneDrive/EMCL+/Linglab/experiment","no","mono","no","18","no","white","no","yes","768","21","2","C:/Users/sonja/OneDrive/EMCL+/Linglab/experiment/L12HY.csv","IMP","PL","PST","31","Kafkaesque Koffka","3.2.7","0","5","space","5","NA","313","724576","313","NA","2","Родители сомневались, помыл ли Даня посуду.","1024","2","48000","-16","experiment","PRF","SG","PST","vso","12","even","818967","NA","726544","1965","818968","NA","1967","NA","640860","822239","1968","822159","821844","818968","655374","821844","NA","NA","640860","New experiment","0","1393494","27","yes","1024","6"
"undefined","undefined","49771.78571428572","49771.78571428572","black","legacy","5distr","0","li","distr","uniform","undefined","undefined","undefined","25","0","0","0","25","NA","0","0","0","25","2","25","25","25","1","25","0","0","0","Tue Dec 10 05:27:23 2019","The main experiment item","yes","liesli (2).osexp","C:/Users/sonja/OneDrive/EMCL+/Linglab/experiment","no","mono","no","18","no","white","no","yes","768","22","2","C:/Users/sonja/OneDrive/EMCL+/Linglab/experiment/L12HY.csv","PRF","SG","FUT","45","Kafkaesque Koffka","3.2.7","0","5","space","5","NA","116","724576","116","NA","2","Саша доест яблоко, если оно будет сладким.","1024","2","48000","-16","experiment","IMP","SG","FUT","sv","12","even","822493","NA","726544","1965","822495","NA","1967","NA","640860","825672","1968","825592","825474","822495","655374","825474","NA","NA","640860","New experiment","0","1393610","28","yes","1024","7"
"undefined","undefined","48128.93103448276","48128.93103448276","black","legacy","14li","0","li","li","uniform","undefined","undefined","undefined","26","0","0","0","26","NA","0","0","0","26","2","26","26","26","1","26","0","0","0","Tue Dec 10 05:27:23 2019","The main experiment item","yes","liesli (2).osexp","C:/Users/sonja/OneDrive/EMCL+/Linglab/experiment","no","mono","no","18","no","white","no","yes","768","23","2","C:/Users/sonja/OneDrive/EMCL+/Linglab/experiment/L12HY.csv","IMP","PL","PST","27","Kafkaesque Koffka","3.2.7","0","4","space","4","NA","2129","724576","2129","NA","2","Мальчики не знали, принесли ли друзья торт.","1024","2","48000","-16","experiment","PRF","PL","PST","vso","12","even","825927","NA","726544","1965","825929","NA","1967","NA","640860","830886","1968","830806","828675","825929","655374","828675","NA","NA","640860","New experiment","0","1395739","29","yes","1024","7"
"undefined","undefined","46592.3","46592.3","black","legacy","2distr","0","li","distr","uniform","undefined","undefined","undefined","27","0","0","0","27","NA","0","0","0","27","2","27","27","27","1","27","0","0","0","Tue Dec 10 05:27:23 2019","The main experiment item","yes","liesli (2).osexp","C:/Users/sonja/OneDrive/EMCL+/Linglab/experiment","no","mono","no","18","no","white","no","yes","768","24","2","C:/Users/sonja/OneDrive/EMCL+/Linglab/experiment/L12HY.csv","PRF","SG","FUT","42","Kafkaesque Koffka","3.2.7","0","5","space","5","NA","2030","724576","2030","NA","2","Вася купит картошку, если придёт зарплата.","1024","2","48000","-16","experiment","IMP","SG","FUT","svo","12","even","831160","NA","726544","1965","831164","NA","1967","NA","640860","836137","1968","836057","834024","831164","655374","834024","NA","NA","640860","New experiment","0","1397769","30","yes","1024","#REF!"
"undefined","undefined","45149.48387096774","45149.48387096774","black","legacy","4esli","0","li","esli","uniform","undefined","undefined","undefined","28","0","0","0","28","NA","0","0","0","28","2","28","28","28","1","28","0","0","0","Tue Dec 10 05:27:23 2019","The main experiment item","yes","liesli (2).osexp","C:/Users/sonja/OneDrive/EMCL+/Linglab/experiment","no","mono","no","18","no","white","no","yes","768","25","2","C:/Users/sonja/OneDrive/EMCL+/Linglab/experiment/L12HY.csv","PRF","SG","PST","8","Kafkaesque Koffka","3.2.7","0","3","space","3","NA","1865","724576","1865","NA","2","Петя спросил, если Вася смотрел кино.","1024","2","48000","-16","experiment","IMP","SG","PST","svo","12","even","836487","NA","726544","1965","836490","NA","1967","NA","640860","841075","1968","840995","839126","836490","655374","839126","NA","NA","640860","New experiment","0","1399634","31","yes","1024","6"
"undefined","undefined","43762.65625","43762.65625","black","legacy","17li","0","li","li","uniform","undefined","undefined","undefined","29","0","0","0","29","NA","0","0","0","29","2","29","29","29","1","29","0","0","0","Tue Dec 10 05:27:23 2019","The main experiment item","yes","liesli (2).osexp","C:/Users/sonja/OneDrive/EMCL+/Linglab/experiment","no","mono","no","18","no","white","no","yes","768","26","2","C:/Users/sonja/OneDrive/EMCL+/Linglab/experiment/L12HY.csv","PRF","SG","PST","33","Kafkaesque Koffka","3.2.7","0","4","space","4","NA","771","724576","771","NA","2","Вася не решил, купит ли он газету.","1024","2","48000","-16","experiment","PRF","SG","FUT","vso","12","even","841474","NA","726544","1965","841477","NA","1967","NA","640860","844651","1968","844571","843796","841477","655374","843796","NA","NA","640860","New experiment","0","1400405","32","yes","1024","7"
