"acc","accuracy","average_response_time","avg_rt","background","canvas_backend","coding","compensation","condition","conditon","coordinates","correct","correct_next","correct_response_1","count_exp_sequence","count_exp_sequence1","count_exp_sequence2","count_experiment","count_fixation","count_getting_started","count_instr","count_list1","count_list2","count_logger","count_next","count_pause","count_response_1","count_sound","count_start_exp","count_task","count_thanks","count_training1","count_training2","datetime","description","disable_garbage_collection","experiment_file","experiment_path","font_bold","font_family","font_italic","font_size","font_underline","foreground","form_clicks","fullscreen","height","live_row","live_row_training1","logfile","main_asp","main_num","main_tense","num","opensesame_codename","opensesame_version","repeat_cycle","response","response_next","response_response_1","response_thanks","response_time","response_time_next","response_time_response_1","response_time_thanks","round_decimals","sentence_rus","sound_buf_size","sound_channels","sound_freq","sound_sample_size","start","sub_asp","sub_num","sub_tense","sub_wo","subject_nr","subject_parity","time_exp_sequence","time_exp_sequence1","time_exp_sequence2","time_experiment","time_fixation","time_getting_started","time_instr","time_list1","time_list2","time_logger","time_next","time_pause","time_response_1","time_sound","time_start_exp","time_task","time_thanks","time_training1","time_training2","title","total_correct","total_response_time","total_responses","uniform_coordinates","width","word_count"
"undefined","undefined","156792.5","156792.5","black","legacy","10distr","0","distr","NA","uniform","undefined","undefined","undefined","0","0","0","0","0","NA","0","0","0","0","2","0","0","0","1","0","0","0","0","12/13/19 12:40:26","The main experiment item","yes","tmp110oashp.osexp","C:/Users/lev/Documents","no","mono","no","18","no","white","no","yes","768","0","0","C:/Users/lev/Documents/Results_LJ/L17HY.csv","PRF","SG","FUT","50","Kafkaesque Koffka","3.2.7","0","5","space","5","NA","4250","309335","4250","NA","2","Дима проверит почту, если компьютер включится.","1024","2","48000","-16","experiment","PRF","SG","FUT","sv","17","odd","313088","NA","NA","3400","313090","NA","3404","312741","NA","320449","3405","320369","316117","313090","NA","316117","NA","312741","NA","New experiment","0","313585","2","yes","1024","6"
"undefined","undefined","106142.666667","106142.666667","black","legacy","2li","0","li","NA","uniform","undefined","undefined","undefined","1","0","0","0","1","NA","0","0","0","1","2","1","1","1","1","1","0","0","0","12/13/19 12:40:26","The main experiment item","yes","tmp110oashp.osexp","C:/Users/lev/Documents","no","mono","no","18","no","white","no","yes","768","1","1","C:/Users/lev/Documents/Results_LJ/L17HY.csv","PRF","PL","PST","3","Kafkaesque Koffka","3.2.7","0","5","space","5","NA","4843","309335","4843","NA","2","Гости не сообщили, приедут ли они.","1024","2","48000","-16","experiment","PRF","PL","FUT","vs","17","odd","320890","NA","NA","3400","320892","NA","3404","312741","NA","328192","3405","328112","323266","320892","NA","323266","NA","312741","NA","New experiment","0","318428","3","yes","1024","6"
"undefined","undefined","80314","80314","black","legacy","12esli","0","esli","NA","uniform","undefined","undefined","undefined","2","0","0","0","2","NA","0","0","0","2","2","2","2","2","1","2","0","0","0","12/13/19 12:40:26","The main experiment item","yes","tmp110oashp.osexp","C:/Users/lev/Documents","no","mono","no","18","no","white","no","yes","768","2","2","C:/Users/lev/Documents/Results_LJ/L17HY.csv","PRF","SG","PST","24","Kafkaesque Koffka","3.2.7","0","1","space","1","NA","2828","309335","2828","NA","2","Нина спросила, если дети поели.","1024","2","48000","-16","experiment","PRF","PL","PST","sv","17","odd","328553","NA","NA","3400","328555","NA","3404","312741","NA","333685","3405","333605","330775","328555","NA","330775","NA","312741","NA","New experiment","0","321256","4","yes","1024","5"
"undefined","undefined","110025.166667","110025.166667","black","legacy","8li","0","li","NA","uniform","undefined","undefined","undefined","3","0","0","0","3","NA","0","0","0","3","2","3","3","3","1","3","0","0","0","12/13/19 12:40:26","The main experiment item","yes","tmp110oashp.osexp","C:/Users/lev/Documents","no","mono","no","18","no","white","no","yes","768","0","2","C:/Users/lev/Documents/Results_LJ/L17HY.csv","PRF","SG","PST","15","Kafkaesque Koffka","3.2.7","0","5","space","5","NA","1698","337197","1698","NA","2","Миша уточнил, будет ли на обед суп.","1024","2","48000","-16","experiment","IMP","SG","FUT","vos","17","odd","340901","340602","NA","3400","340903","NA","3404","312741","NA","345118","3405","345038","343338","340904","333775","343337","NA","312741","NA","New experiment","0","660151","6","yes","1024","7"
"undefined","undefined","94433.4285714","94433.4285714","black","legacy","1li","0","li","NA","uniform","undefined","undefined","undefined","4","0","0","0","4","NA","0","0","0","4","2","4","4","4","1","4","0","0","0","12/13/19 12:40:26","The main experiment item","yes","tmp110oashp.osexp","C:/Users/lev/Documents","no","mono","no","18","no","white","no","yes","768","1","2","C:/Users/lev/Documents/Results_LJ/L17HY.csv","IMP","SG","PST","1","Kafkaesque Koffka","3.2.7","0","5","space","5","NA","883","337197","883","NA","2","Саша не знала, придут ли дети домой.","1024","2","48000","-16","experiment","PRF","PL","FUT","vso","17","odd","345494","340602","NA","3400","345496","NA","3404","312741","NA","348874","3405","348794","347908","345496","333775","347907","NA","312741","NA","New experiment","0","661034","7","yes","1024","7"
"undefined","undefined","83036.875","83036.875","black","legacy","18esli","0","esli","NA","uniform","undefined","undefined","undefined","5","0","0","0","5","NA","0","0","0","5","2","5","5","5","1","5","0","0","0","12/13/19 12:40:26","The main experiment item","yes","tmp110oashp.osexp","C:/Users/lev/Documents","no","mono","no","18","no","white","no","yes","768","2","2","C:/Users/lev/Documents/Results_LJ/L17HY.csv","PRF","PL","PST","36","Kafkaesque Koffka","3.2.7","0","1","space","1","NA","3261","337197","3261","NA","2","Хозяева уточнили, если Маша выключила плиту.","1024","2","48000","-16","experiment","PRF","SG","PST","svo","17","odd","349271","340602","NA","3400","349273","NA","3404","312741","NA","355662","3405","355581","352317","349273","333775","352316","NA","312741","NA","New experiment","0","664295","8","yes","1024","6"
"undefined","undefined","73924.8888889","73924.8888889","black","legacy","3distr","0","distr","NA","uniform","undefined","undefined","undefined","6","0","0","0","6","NA","0","0","0","6","2","6","6","6","1","6","0","0","0","12/13/19 12:40:26","The main experiment item","yes","tmp110oashp.osexp","C:/Users/lev/Documents","no","mono","no","18","no","white","no","yes","768","3","2","C:/Users/lev/Documents/Results_LJ/L17HY.csv","PRF","SG","FUT","43","Kafkaesque Koffka","3.2.7","0","5","space","5","NA","1029","337197","1029","NA","2","Таня посмотрит новости, если заработает телевизор.","1024","2","48000","-16","experiment","PRF","SG","FUT","vs","17","odd","356080","340602","NA","3400","356082","NA","3404","312741","NA","360389","3405","360309","359278","356082","333775","359277","NA","312741","NA","New experiment","0","665324","9","yes","1024","6"
"undefined","undefined","66761.1","66761.1","black","legacy","1distr","0","distr","NA","uniform","undefined","undefined","undefined","7","0","0","0","7","NA","0","0","0","7","2","7","7","7","1","7","0","0","0","12/13/19 12:40:26","The main experiment item","yes","tmp110oashp.osexp","C:/Users/lev/Documents","no","mono","no","18","no","white","no","yes","768","4","2","C:/Users/lev/Documents/Results_LJ/L17HY.csv","PRF","SG","FUT","41","Kafkaesque Koffka","3.2.7","0","5","space","5","NA","2287","337197","2287","NA","2","Папа придёт поздно, если вечером будет снег.","1024","2","48000","-16","experiment","IMP","PL","FUT","ovs","17","odd","360772","340602","NA","3400","360774","NA","3404","312741","NA","365886","3405","365806","363516","360775","333775","363516","NA","312741","NA","New experiment","0","667611","10","yes","1024","7"
"undefined","undefined","60750.8181818","60750.8181818","black","legacy","15esli","0","esli","NA","uniform","undefined","undefined","undefined","8","0","0","0","8","NA","0","0","0","8","2","8","8","8","1","8","0","0","0","12/13/19 12:40:26","The main experiment item","yes","tmp110oashp.osexp","C:/Users/lev/Documents","no","mono","no","18","no","white","no","yes","768","5","2","C:/Users/lev/Documents/Results_LJ/L17HY.csv","PRF","SG","PST","30","Kafkaesque Koffka","3.2.7","0","1","space","1","NA","648","337197","648","NA","2","Учитель поинтересовался, если ученики выполнили задание.","1024","2","48000","-16","experiment","PRF","PL","PST","svo","17","odd","366321","340602","NA","3400","366323","NA","3404","312741","NA","370606","3405","370526","369876","366323","333775","369875","NA","312741","NA","New experiment","0","668259","11","yes","1024","6"
"undefined","undefined","55805.4166667","55805.4166667","black","legacy","3li","0","li","NA","uniform","undefined","undefined","undefined","9","0","0","0","9","NA","0","0","0","9","2","9","9","9","1","9","0","0","0","12/13/19 12:40:26","The main experiment item","yes","tmp110oashp.osexp","C:/Users/lev/Documents","no","mono","no","18","no","white","no","yes","768","6","2","C:/Users/lev/Documents/Results_LJ/L17HY.csv","IMP","PL","PST","5","Kafkaesque Koffka","3.2.7","0","5","space","5","NA","1406","337197","1406","NA","2","Туристы сомневались, будет ли вечером дождь.","1024","2","48000","-16","experiment","IMP","SG","FUT","vs","17","odd","370987","340602","NA","3400","370989","NA","3404","312741","NA","375226","3405","375146","373737","370989","333775","373736","NA","312741","NA","New experiment","0","669665","12","yes","1024","6"
"undefined","undefined","51615.5384615","51615.5384615","black","legacy","6distr","0","distr","NA","uniform","undefined","undefined","undefined","10","0","0","0","10","NA","0","0","0","10","2","10","10","10","1","10","0","0","0","12/13/19 12:40:26","The main experiment item","yes","tmp110oashp.osexp","C:/Users/lev/Documents","no","mono","no","18","no","white","no","yes","768","7","2","C:/Users/lev/Documents/Results_LJ/L17HY.csv","PRF","SG","FUT","46","Kafkaesque Koffka","3.2.7","0","5","space","5","NA","1337","337197","1337","NA","2","Женя пойдёт гулять, если его позовут.","1024","2","48000","-16","experiment","PRF","SG","FUT","ov","17","odd","375607","340602","NA","3400","375609","NA","3404","312741","NA","379537","3405","379456","378117","375609","333775","378117","NA","312741","NA","New experiment","0","671002","13","yes","1024","6"
"undefined","undefined","48004.4285714","48004.4285714","black","legacy","6esli","0","esli","NA","uniform","undefined","undefined","undefined","11","0","0","0","11","NA","0","0","0","11","2","11","11","11","1","11","0","0","0","12/13/19 12:40:26","The main experiment item","yes","tmp110oashp.osexp","C:/Users/lev/Documents","no","mono","no","18","no","white","no","yes","768","8","2","C:/Users/lev/Documents/Results_LJ/L17HY.csv","PRF","SG","PST","12","Kafkaesque Koffka","3.2.7","0","1","space","1","NA","1060","337197","1060","NA","2","Лена задумалась, если ей понравились подарки.","1024","2","48000","-16","experiment","PRF","PL","PST","ovs","17","odd","379954","340602","NA","3400","379956","NA","3404","312741","NA","384027","3405","383947","382885","379957","333775","382885","NA","312741","NA","New experiment","0","672062","14","yes","1024","6"
"undefined","undefined","44857.3333333","44857.3333333","black","legacy","20li","0","li","NA","uniform","undefined","undefined","undefined","12","0","0","0","12","NA","0","0","0","12","2","12","12","12","1","12","0","0","0","12/13/19 12:40:26","The main experiment item","yes","tmp110oashp.osexp","C:/Users/lev/Documents","no","mono","no","18","no","white","no","yes","768","9","2","C:/Users/lev/Documents/Results_LJ/L17HY.csv","PRF","SG","PST","39","Kafkaesque Koffka","3.2.7","0","5","space","5","NA","798","337197","798","NA","2","Коля задумался, остались ли в доме конфеты","1024","2","48000","-16","experiment","PRF","PL","PST","vos","17","odd","384445","340602","NA","3400","384447","NA","3404","312741","NA","388317","3405","388237","387436","384447","333775","387436","NA","312741","NA","New experiment","0","672860","15","yes","1024","7"
"undefined","undefined","42111.0625","42111.0625","black","legacy","5li","0","li","NA","uniform","undefined","undefined","undefined","13","0","0","0","13","NA","0","0","0","13","2","13","13","13","1","13","0","0","0","12/13/19 12:40:26","The main experiment item","yes","tmp110oashp.osexp","C:/Users/lev/Documents","no","mono","no","18","no","white","no","yes","768","10","2","C:/Users/lev/Documents/Results_LJ/L17HY.csv","PRF","PL","PST","9","Kafkaesque Koffka","3.2.7","0","5","space","5","NA","917","337197","917","NA","2","Ученики забыли, будут ли завтра занятия.","1024","2","48000","-16","experiment","IMP","PL","FUT","vs","17","odd","388728","340602","NA","3400","388730","NA","3404","312741","NA","392507","3405","392427","391507","388730","333775","391506","NA","312741","NA","New experiment","0","673777","16","yes","1024","6"
"undefined","undefined","39721.6470588","39721.6470588","black","legacy","11esli","0","esli","NA","uniform","undefined","undefined","undefined","14","0","0","0","14","NA","0","0","0","14","2","14","14","14","1","14","0","0","0","12/13/19 12:40:26","The main experiment item","yes","tmp110oashp.osexp","C:/Users/lev/Documents","no","mono","no","18","no","white","no","yes","768","11","2","C:/Users/lev/Documents/Results_LJ/L17HY.csv","IMP","PL","PST","22","Kafkaesque Koffka","3.2.7","0","1","space","1","NA","1491","337197","1491","NA","2","Внуки узнавали, если летом приедет бабушка. ","1024","2","48000","-16","experiment","PRF","SG","FUT","ovs","17","odd","392902","340602","NA","3400","392904","NA","3404","312741","NA","397463","3405","397382","395887","392905","333775","395886","NA","312741","NA","New experiment","0","675268","17","yes","1024","6"
"undefined","undefined","37543.2777778","37543.2777778","black","legacy","9li","0","li","NA","uniform","undefined","undefined","undefined","15","0","0","0","15","NA","0","0","0","15","2","15","15","15","1","15","0","0","0","12/13/19 12:40:26","The main experiment item","yes","tmp110oashp.osexp","C:/Users/lev/Documents","no","mono","no","18","no","white","no","yes","768","12","2","C:/Users/lev/Documents/Results_LJ/L17HY.csv","PRF","SG","PST","17","Kafkaesque Koffka","3.2.7","0","5","space","5","NA","511","337197","511","NA","2","Катя проверила, не забыла ли она перчатки.","1024","2","48000","-16","experiment","PRF","SG","PST","vso","17","odd","397890","340602","NA","3400","397892","NA","3404","312741","NA","401151","3405","401071","400558","397892","333775","400558","NA","312741","NA","New experiment","0","675779","18","yes","1024","7"
"undefined","undefined","35661.5789474","35661.5789474","black","legacy","19esli","0","esli","NA","uniform","undefined","undefined","undefined","16","0","0","0","16","NA","0","0","0","16","2","16","16","16","1","16","0","0","0","12/13/19 12:40:26","The main experiment item","yes","tmp110oashp.osexp","C:/Users/lev/Documents","no","mono","no","18","no","white","no","yes","768","13","2","C:/Users/lev/Documents/Results_LJ/L17HY.csv","PRF","PL","PST","38","Kafkaesque Koffka","3.2.7","0","1","space","1","NA","1791","337197","1791","NA","2","Соседи не сказали, если они полили цветы.","1024","2","48000","-16","experiment","PRF","PL","PST","svo","17","odd","401573","340602","NA","3400","401575","NA","3404","312741","NA","406233","3405","406153","404357","401575","333775","404356","NA","312741","NA","New experiment","0","677570","19","yes","1024","7"
"undefined","undefined","33883.15","33883.15","black","legacy","8distr","0","distr","NA","uniform","undefined","undefined","undefined","17","0","0","0","17","NA","0","0","0","17","2","17","17","17","1","17","0","0","0","12/13/19 12:40:26","The main experiment item","yes","tmp110oashp.osexp","C:/Users/lev/Documents","no","mono","no","18","no","white","no","yes","768","14","2","C:/Users/lev/Documents/Results_LJ/L17HY.csv","PRF","SG","FUT","48","Kafkaesque Koffka","3.2.7","0","5","space","5","NA","93","337197","93","NA","2","Мама съест пирожное, если оно будет вкусным.","1024","2","48000","-16","experiment","IMP","SG","FUT","sv","17","odd","406754","340602","NA","3400","406756","NA","3404","312741","NA","409924","3405","409844","409746","406756","333775","409746","NA","312741","NA","New experiment","0","677663","20","yes","1024","7"
"undefined","undefined","32282.2380952","32282.2380952","black","legacy","4distr","0","distr","NA","uniform","undefined","undefined","undefined","18","0","0","0","18","NA","0","0","0","18","2","18","18","18","1","18","0","0","0","12/13/19 12:40:26","The main experiment item","yes","tmp110oashp.osexp","C:/Users/lev/Documents","no","mono","no","18","no","white","no","yes","768","15","2","C:/Users/lev/Documents/Results_LJ/L17HY.csv","PRF","SG","FUT","44","Kafkaesque Koffka","3.2.7","0","5","space","5","NA","264","337197","264","NA","2","Витя помоет посуду, если доделает уроки.","1024","2","48000","-16","experiment","PRF","SG","FUT","(s)vo","17","odd","410531","340602","NA","3400","410533","NA","3404","312741","NA","413802","3405","413722","413456","410534","333775","413456","NA","312741","NA","New experiment","0","677927","21","yes","1024","6"
"undefined","undefined","30857.0454545","30857.0454545","black","legacy","10li","0","li","NA","uniform","undefined","undefined","undefined","19","0","0","0","19","NA","0","0","0","19","2","19","19","19","1","19","0","0","0","12/13/19 12:40:26","The main experiment item","yes","tmp110oashp.osexp","C:/Users/lev/Documents","no","mono","no","18","no","white","no","yes","768","16","2","C:/Users/lev/Documents/Results_LJ/L17HY.csv","IMP","PL","PST","19","Kafkaesque Koffka","3.2.7","0","5","space","5","NA","928","337197","928","NA","2","Они интересовались, написали ли журналисты про выборы.","1024","2","48000","-16","experiment","PRF","PL","PST","vso","17","odd","414257","340602","NA","3400","414260","NA","3404","312741","NA","418527","3405","418447","417516","414260","333775","417516","NA","312741","NA","New experiment","0","678855","22","yes","1024","7"
"undefined","undefined","29605.9130435","29605.9130435","black","legacy","9distr","0","distr","NA","uniform","undefined","undefined","undefined","20","0","0","0","20","NA","0","0","0","20","2","20","20","20","1","20","0","0","0","12/13/19 12:40:26","The main experiment item","yes","tmp110oashp.osexp","C:/Users/lev/Documents","no","mono","no","18","no","white","no","yes","768","17","2","C:/Users/lev/Documents/Results_LJ/L17HY.csv","PRF","SG","FUT","49","Kafkaesque Koffka","3.2.7","0","5","space","5","NA","2081","337197","2081","NA","2","Маша позвонит другу, если он будет дома.","1024","2","48000","-16","experiment","IMP","SG","FUT","svo","17","odd","418934","340602","NA","3400","418937","NA","3404","312741","NA","423900","3405","423820","421737","418937","333775","421736","NA","312741","NA","New experiment","0","680936","23","yes","1024","7"
"undefined","undefined","28411.2916667","28411.2916667","black","legacy","13esli","0","esli","NA","uniform","undefined","undefined","undefined","21","0","0","0","21","NA","0","0","0","21","2","21","21","21","1","21","0","0","0","12/13/19 12:40:26","The main experiment item","yes","tmp110oashp.osexp","C:/Users/lev/Documents","no","mono","no","18","no","white","no","yes","768","18","2","C:/Users/lev/Documents/Results_LJ/L17HY.csv","PRF","SG","PST","26","Kafkaesque Koffka","3.2.7","0","1","space","1","NA","935","337197","935","NA","2","Витя забыл, если во вторник будет игра.","1024","2","48000","-16","experiment","IMP","SG","FUT","ovs","17","odd","424281","340602","NA","3400","424283","NA","3404","312741","NA","427854","3405","427774","426836","424283","333775","426835","NA","312741","NA","New experiment","0","681871","24","yes","1024","7"
"undefined","undefined","27290","27290","black","legacy","7li","0","li","NA","uniform","undefined","undefined","undefined","22","0","0","0","22","NA","0","0","0","22","2","22","22","22","1","22","0","0","0","12/13/19 12:40:26","The main experiment item","yes","tmp110oashp.osexp","C:/Users/lev/Documents","no","mono","no","18","no","white","no","yes","768","19","2","C:/Users/lev/Documents/Results_LJ/L17HY.csv","PRF","PL","PST","13","Kafkaesque Koffka","3.2.7","0","5","space","5","NA","379","337197","379","NA","2","Братья не сказали, покормили ли они собаку.","1024","2","48000","-16","experiment","PRF","PL","PST","vso","17","odd","428263","340602","NA","3400","428265","NA","3404","312741","NA","431668","3405","431588","431206","428266","333775","431205","NA","312741","NA","New experiment","0","682250","25","yes","1024","7"
"undefined","undefined","26255.2692308","26255.2692308","black","legacy","7distr","0","distr","NA","uniform","undefined","undefined","undefined","23","0","0","0","23","NA","0","0","0","23","2","23","23","23","1","23","0","0","0","12/13/19 12:40:26","The main experiment item","yes","tmp110oashp.osexp","C:/Users/lev/Documents","no","mono","no","18","no","white","no","yes","768","20","2","C:/Users/lev/Documents/Results_LJ/L17HY.csv","PRF","SG","FUT","47","Kafkaesque Koffka","3.2.7","0","5","space","5","NA","387","337197","387","NA","2","Рита останется дома, если сильно заболеет.","1024","2","48000","-16","experiment","PRF","SG","FUT","(s)ov","17","odd","432088","340602","NA","3400","432090","NA","3404","312741","NA","435515","3405","435435","435046","432090","333775","435046","NA","312741","NA","New experiment","0","682637","26","yes","1024","6"
"undefined","undefined","25292","25292","black","legacy","16esli","0","esli","NA","uniform","undefined","undefined","undefined","24","0","0","0","24","NA","0","0","0","24","2","24","24","24","1","24","0","0","0","12/13/19 12:40:26","The main experiment item","yes","tmp110oashp.osexp","C:/Users/lev/Documents","no","mono","no","18","no","white","no","yes","768","21","2","C:/Users/lev/Documents/Results_LJ/L17HY.csv","IMP","PL","PST","32","Kafkaesque Koffka","3.2.7","0","1","space","1","NA","247","337197","247","NA","2","Родители сомневалась, если Даня помыл посуду.","1024","2","48000","-16","experiment","PRF","SG","PST","svo","17","odd","435925","340602","NA","3400","435927","NA","3404","312741","NA","439265","3405","439185","438936","435927","333775","438935","NA","312741","NA","New experiment","0","682884","27","yes","1024","6"
"undefined","undefined","24390.9642857","24390.9642857","black","legacy","5distr","0","distr","NA","uniform","undefined","undefined","undefined","25","0","0","0","25","NA","0","0","0","25","2","25","25","25","1","25","0","0","0","12/13/19 12:40:26","The main experiment item","yes","tmp110oashp.osexp","C:/Users/lev/Documents","no","mono","no","18","no","white","no","yes","768","22","2","C:/Users/lev/Documents/Results_LJ/L17HY.csv","PRF","SG","FUT","45","Kafkaesque Koffka","3.2.7","0","5","space","5","NA","63","337197","63","NA","2","Саша доест яблоко, если оно будет сладким.","1024","2","48000","-16","experiment","IMP","SG","FUT","sv","17","odd","439660","340602","NA","3400","439662","NA","3404","312741","NA","442792","3405","442712","442646","439662","333775","442645","NA","312741","NA","New experiment","0","682947","28","yes","1024","7"
"undefined","undefined","23595.862069","23595.862069","black","legacy","14esli","0","esli","NA","uniform","undefined","undefined","undefined","26","0","0","0","26","NA","0","0","0","26","2","26","26","26","1","26","0","0","0","12/13/19 12:40:26","The main experiment item","yes","tmp110oashp.osexp","C:/Users/lev/Documents","no","mono","no","18","no","white","no","yes","768","23","2","C:/Users/lev/Documents/Results_LJ/L17HY.csv","IMP","PL","PST","28","Kafkaesque Koffka","3.2.7","0","1","space","1","NA","1333","337197","1333","NA","2","Мальчики не знали, если друзья принесли торт.","1024","2","48000","-16","experiment","PRF","PL","PST","svo","17","odd","443196","340602","NA","3400","443198","NA","3404","312741","NA","447490","3405","447410","446075","443198","333775","446075","NA","312741","NA","New experiment","0","684280","29","yes","1024","7"
"undefined","undefined","22977.2333333","22977.2333333","black","legacy","2distr","0","distr","NA","uniform","undefined","undefined","undefined","27","0","0","0","27","NA","0","0","0","27","2","27","27","27","1","27","0","0","0","12/13/19 12:40:26","The main experiment item","yes","tmp110oashp.osexp","C:/Users/lev/Documents","no","mono","no","18","no","white","no","yes","768","24","2","C:/Users/lev/Documents/Results_LJ/L17HY.csv","PRF","SG","FUT","42","Kafkaesque Koffka","3.2.7","0","5","space","5","NA","5037","337197","5037","NA","2","Вася купит картошку, если придёт зарплата.","1024","2","48000","-16","experiment","PRF","SG","FUT","vs","17","odd","447906","340602","NA","3400","447908","NA","3404","312741","NA","455894","3405","455814","450775","447908","333775","450775","NA","312741","NA","New experiment","0","689317","30","yes","1024","6"
"undefined","undefined","22349.0322581","22349.0322581","black","legacy","4li","0","li","NA","uniform","undefined","undefined","undefined","28","0","0","0","28","NA","0","0","0","28","2","28","28","28","1","28","0","0","0","12/13/19 12:40:26","The main experiment item","yes","tmp110oashp.osexp","C:/Users/lev/Documents","no","mono","no","18","no","white","no","yes","768","25","2","C:/Users/lev/Documents/Results_LJ/L17HY.csv","PRF","SG","PST","7","Kafkaesque Koffka","3.2.7","0","5","space","5","NA","3503","337197","3503","NA","2","Петя спросил, смотрел ли Вася кино.","1024","2","48000","-16","experiment","IMP","SG","PST","vso","17","odd","456253","340602","NA","3400","456255","NA","3404","312741","NA","462162","3405","462082","458576","456255","333775","458575","NA","312741","NA","New experiment","0","692820","31","yes","1024","6"
"undefined","undefined","21720.03125","21720.03125","black","legacy","17esli","0","esli","NA","uniform","undefined","undefined","undefined","29","0","0","0","29","NA","0","0","0","29","2","29","29","29","1","29","0","0","0","12/13/19 12:40:26","The main experiment item","yes","tmp110oashp.osexp","C:/Users/lev/Documents","no","mono","no","18","no","white","no","yes","768","26","2","C:/Users/lev/Documents/Results_LJ/L17HY.csv","PRF","SG","PST","34","Kafkaesque Koffka","3.2.7","0","1","space","1","NA","2221","337197","2221","NA","2","Вася не решил, если он купит газету.","1024","2","48000","-16","experiment","PRF","SG","FUT","svo","17","odd","462551","340602","NA","3400","462553","NA","3404","312741","NA","467480","3405","467400","465176","462554","333775","465175","NA","312741","NA","New experiment","0","695041","32","yes","1024","7"
