"acc","accuracy","average_response_time","avg_rt","background","canvas_backend","coding","compensation","condition","conditon","coordinates","correct","correct_next","correct_response_1","count_exp_sequence","count_exp_sequence1","count_exp_sequence2","count_experiment","count_fixation","count_getting_started","count_instr","count_list1","count_list2","count_logger","count_next","count_pause","count_response_1","count_sound","count_start_exp","count_task","count_thanks","count_training1","count_training2","datetime","description","disable_garbage_collection","experiment_file","experiment_path","font_bold","font_family","font_italic","font_size","font_underline","foreground","form_clicks","fullscreen","height","live_row","live_row_training2","logfile","main_asp","main_num","main_tense","num","opensesame_codename","opensesame_version","repeat_cycle","response","response_next","response_response_1","response_thanks","response_time","response_time_next","response_time_response_1","response_time_thanks","round_decimals","sentence_rus","sound_buf_size","sound_channels","sound_freq","sound_sample_size","start","sub_asp","sub_num","sub_tense","sub_wo","subject_nr","subject_parity","time_exp_sequence","time_exp_sequence1","time_exp_sequence2","time_experiment","time_fixation","time_getting_started","time_instr","time_list1","time_list2","time_logger","time_next","time_pause","time_response_1","time_sound","time_start_exp","time_task","time_thanks","time_training1","time_training2","title","total_correct","total_response_time","total_responses","uniform_coordinates","width","word_count"
"undefined","undefined","32990.5","32990.5","black","legacy","10distr","0","distr","NA","uniform","undefined","undefined","undefined","0","0","0","0","0","NA","0","0","0","0","2","0","0","0","1","0","0","0","0","Sun Dec 15 16:49:30 2019","The main experiment item","yes","liesli.osexp","C:/Users/annar/OneDrive/Active/Inderect_questions_li_esli/Exp_script","no","mono","no","18","no","white","no","yes","768","0","0","C:/Users/annar/OneDrive/Active/Inderect_questions_li_esli/Exp_script/L20NY.csv","PRF","SG","FUT","50","Kafkaesque Koffka","3.2.7","0","5","space","5","NA","1859","64122","1859","NA","2","Дима проверит почту, если компьютер включится.","1024","2","48000","-16","experiment","PRF","SG","FUT","sv","20","even","68244","NA","NA","3830","68246","NA","3839","NA","67962","73206","3839","73126","71264","68246","NA","71264","NA","NA","67963","New experiment","0","65981","2","yes","1024","6"
"undefined","undefined","23057","23057","black","legacy","2esli","0","esli","NA","uniform","undefined","undefined","undefined","1","0","0","0","1","NA","0","0","0","1","2","1","1","1","1","1","0","0","0","Sun Dec 15 16:49:30 2019","The main experiment item","yes","liesli.osexp","C:/Users/annar/OneDrive/Active/Inderect_questions_li_esli/Exp_script","no","mono","no","18","no","white","no","yes","768","1","1","C:/Users/annar/OneDrive/Active/Inderect_questions_li_esli/Exp_script/L20NY.csv","PRF","PL","PST","4","Kafkaesque Koffka","3.2.7","0","1","space","1","NA","3190","64122","3190","NA","2","Гости не сообщили, если они приедут.","1024","2","48000","-16","experiment","PRF","PL","FUT","so","20","even","73577","NA","NA","3830","73579","NA","3839","NA","67962","79467","3839","79387","76195","73579","NA","76195","NA","NA","67963","New experiment","0","69171","3","yes","1024","6"
"undefined","undefined","20007.5","20007.5","black","legacy","12li","0","li","NA","uniform","undefined","undefined","undefined","2","0","0","0","2","NA","0","0","0","2","2","2","2","2","1","2","0","0","0","Sun Dec 15 16:49:30 2019","The main experiment item","yes","liesli.osexp","C:/Users/annar/OneDrive/Active/Inderect_questions_li_esli/Exp_script","no","mono","no","18","no","white","no","yes","768","2","2","C:/Users/annar/OneDrive/Active/Inderect_questions_li_esli/Exp_script/L20NY.csv","PRF","SG","PST","23","Kafkaesque Koffka","3.2.7","0","5","space","5","NA","10859","64122","10859","NA","2","Нина спросила, поели ли дети.","1024","2","48000","-16","experiment","PRF","PL","PST","vos","20","even","79786","NA","NA","3830","79788","NA","3839","NA","67962","92919","3839","92839","81975","79788","NA","81975","NA","NA","67963","New experiment","0","80030","4","yes","1024","5"
"undefined","undefined","30524.166666666668","30524.166666666668","black","legacy","8esli","0","li","esli","uniform","undefined","undefined","undefined","3","0","0","0","3","NA","0","0","0","3","2","3","3","3","1","3","0","0","0","Sun Dec 15 16:49:30 2019","The main experiment item","yes","liesli.osexp","C:/Users/annar/OneDrive/Active/Inderect_questions_li_esli/Exp_script","no","mono","no","18","no","white","no","yes","768","0","2","C:/Users/annar/OneDrive/Active/Inderect_questions_li_esli/Exp_script/L20NY.csv","PRF","SG","PST","16","Kafkaesque Koffka","3.2.7","0","2","space","2","NA","1679","101436","1679","NA","2","Миша уточнил, если на обед будет суп.","1024","2","48000","-16","experiment","IMP","SG","FUT","ovs","20","even","105521","NA","105275","3830","105523","NA","3839","NA","67962","109876","3839","109796","108114","105523","92965","108113","NA","NA","67963","New experiment","0","183145","6","yes","1024","7"
"undefined","undefined","26331.428571428572","26331.428571428572","black","legacy","1esli","0","li","esli","uniform","undefined","undefined","undefined","4","0","0","0","4","NA","0","0","0","4","2","4","4","4","1","4","0","0","0","Sun Dec 15 16:49:30 2019","The main experiment item","yes","liesli.osexp","C:/Users/annar/OneDrive/Active/Inderect_questions_li_esli/Exp_script","no","mono","no","18","no","white","no","yes","768","1","2","C:/Users/annar/OneDrive/Active/Inderect_questions_li_esli/Exp_script/L20NY.csv","IMP","SG","PST","2","Kafkaesque Koffka","3.2.7","0","2","space","2","NA","1175","101436","1175","NA","2","Саша не знала, если дети придут домой.","1024","2","48000","-16","experiment","PRF","PL","FUT","svo","20","even","110221","NA","105275","3830","110223","NA","3839","NA","67962","114255","3839","114175","112995","110223","92965","112995","NA","NA","67963","New experiment","0","184320","7","yes","1024","7"
"undefined","undefined","23424.625","23424.625","black","legacy","18li","0","li","li","uniform","undefined","undefined","undefined","5","0","0","0","5","NA","0","0","0","5","2","5","5","5","1","5","0","0","0","Sun Dec 15 16:49:30 2019","The main experiment item","yes","liesli.osexp","C:/Users/annar/OneDrive/Active/Inderect_questions_li_esli/Exp_script","no","mono","no","18","no","white","no","yes","768","2","2","C:/Users/annar/OneDrive/Active/Inderect_questions_li_esli/Exp_script/L20NY.csv","PRF","PL","PST","35","Kafkaesque Koffka","3.2.7","0","4","space","4","NA","3077","101436","3077","NA","2","Хозяева уточнили, выключила ли Маша плиту.","1024","2","48000","-16","experiment","PRF","SG","PST","vso","20","even","114637","NA","105275","3830","114638","NA","3839","NA","67962","120844","3839","120764","117684","114638","92965","117683","NA","NA","67963","New experiment","0","187397","8","yes","1024","6"
"undefined","undefined","20943.222222222223","20943.222222222223","black","legacy","3distr","0","li","distr","uniform","undefined","undefined","undefined","6","0","0","0","6","NA","0","0","0","6","2","6","6","6","1","6","0","0","0","Sun Dec 15 16:49:30 2019","The main experiment item","yes","liesli.osexp","C:/Users/annar/OneDrive/Active/Inderect_questions_li_esli/Exp_script","no","mono","no","18","no","white","no","yes","768","3","2","C:/Users/annar/OneDrive/Active/Inderect_questions_li_esli/Exp_script/L20NY.csv","PRF","SG","FUT","43","Kafkaesque Koffka","3.2.7","0","5","space","5","NA","1092","101436","1092","NA","2","Таня посмотрит новости, если заработает телевизор.","1024","2","48000","-16","experiment","PRF","SG","FUT","vs","20","even","121136","NA","105275","3830","121138","NA","3839","NA","67962","125501","3839","125420","124325","121138","92965","124325","NA","NA","67963","New experiment","0","188489","9","yes","1024","6"
"undefined","undefined","19080.5","19080.5","black","legacy","1distr","0","li","distr","uniform","undefined","undefined","undefined","7","0","0","0","7","NA","0","0","0","7","2","7","7","7","1","7","0","0","0","Sun Dec 15 16:49:30 2019","The main experiment item","yes","liesli.osexp","C:/Users/annar/OneDrive/Active/Inderect_questions_li_esli/Exp_script","no","mono","no","18","no","white","no","yes","768","4","2","C:/Users/annar/OneDrive/Active/Inderect_questions_li_esli/Exp_script/L20NY.csv","PRF","SG","FUT","41","Kafkaesque Koffka","3.2.7","0","4","space","4","NA","2316","101436","2316","NA","2","Папа придёт поздно, если вечером будет снег.","1024","2","48000","-16","experiment","IMP","PL","FUT","ovs","20","even","125903","NA","105275","3830","125905","NA","3839","NA","67962","131054","3839","130974","128654","125905","92965","128654","NA","NA","67963","New experiment","0","190805","10","yes","1024","7"
"undefined","undefined","17523.18181818182","17523.18181818182","black","legacy","15li","0","li","li","uniform","undefined","undefined","undefined","8","0","0","0","8","NA","0","0","0","8","2","8","8","8","1","8","0","0","0","Sun Dec 15 16:49:30 2019","The main experiment item","yes","liesli.osexp","C:/Users/annar/OneDrive/Active/Inderect_questions_li_esli/Exp_script","no","mono","no","18","no","white","no","yes","768","5","2","C:/Users/annar/OneDrive/Active/Inderect_questions_li_esli/Exp_script/L20NY.csv","PRF","SG","PST","29","Kafkaesque Koffka","3.2.7","0","5","space","5","NA","1950","101436","1950","NA","2","Учитель поинтересовался, выполнили ли ученики задание.","1024","2","48000","-16","experiment","PRF","PL","PST","vso","20","even","131431","NA","105275","3830","131432","NA","3839","NA","67962","137147","3839","137067","135114","131433","92965","135114","NA","NA","67963","New experiment","0","192755","11","yes","1024","6"
"undefined","undefined","16195.833333333334","16195.833333333334","black","legacy","3esli","0","li","esli","uniform","undefined","undefined","undefined","9","0","0","0","9","NA","0","0","0","9","2","9","9","9","1","9","0","0","0","Sun Dec 15 16:49:30 2019","The main experiment item","yes","liesli.osexp","C:/Users/annar/OneDrive/Active/Inderect_questions_li_esli/Exp_script","no","mono","no","18","no","white","no","yes","768","6","2","C:/Users/annar/OneDrive/Active/Inderect_questions_li_esli/Exp_script/L20NY.csv","IMP","PL","PST","6","Kafkaesque Koffka","3.2.7","0","2","space","2","NA","1595","101436","1595","NA","2","Туристы сомневались, если вечером будет дождь.","1024","2","48000","-16","experiment","IMP","SG","FUT","vs","20","even","137501","NA","105275","3830","137503","NA","3839","NA","67962","142131","3839","142050","140452","137503","92965","140452","NA","NA","67963","New experiment","0","194350","12","yes","1024","6"
"undefined","undefined","14994.461538461539","14994.461538461539","black","legacy","6distr","0","li","distr","uniform","undefined","undefined","undefined","10","0","0","0","10","NA","0","0","0","10","2","10","10","10","1","10","0","0","0","Sun Dec 15 16:49:30 2019","The main experiment item","yes","liesli.osexp","C:/Users/annar/OneDrive/Active/Inderect_questions_li_esli/Exp_script","no","mono","no","18","no","white","no","yes","768","7","2","C:/Users/annar/OneDrive/Active/Inderect_questions_li_esli/Exp_script/L20NY.csv","PRF","SG","FUT","46","Kafkaesque Koffka","3.2.7","0","5","space","5","NA","578","101436","578","NA","2","Женя пойдёт гулять, если его позовут.","1024","2","48000","-16","experiment","PRF","SG","FUT","ov","20","even","142478","NA","105275","3830","142480","NA","3839","NA","67962","145658","3839","145578","144995","142480","92965","144995","NA","NA","67963","New experiment","0","194928","13","yes","1024","6"
"undefined","undefined","14045.785714285714","14045.785714285714","black","legacy","6li","0","li","li","uniform","undefined","undefined","undefined","11","0","0","0","11","NA","0","0","0","11","2","11","11","11","1","11","0","0","0","Sun Dec 15 16:49:30 2019","The main experiment item","yes","liesli.osexp","C:/Users/annar/OneDrive/Active/Inderect_questions_li_esli/Exp_script","no","mono","no","18","no","white","no","yes","768","8","2","C:/Users/annar/OneDrive/Active/Inderect_questions_li_esli/Exp_script/L20NY.csv","PRF","SG","PST","11","Kafkaesque Koffka","3.2.7","0","4","space","4","NA","1713","101436","1713","NA","2","Лена задумалась, понравились ли ей подарки.","1024","2","48000","-16","experiment","PRF","PL","PST","vos","20","even","146001","NA","105275","3830","146005","NA","3839","NA","67962","150615","3839","150533","148815","146005","92965","148815","NA","NA","67963","New experiment","0","196641","14","yes","1024","6"
"undefined","undefined","13438.866666666667","13438.866666666667","black","legacy","20esli","0","li","esli","uniform","undefined","undefined","undefined","12","0","0","0","12","NA","0","0","0","12","2","12","12","12","1","12","0","0","0","Sun Dec 15 16:49:30 2019","The main experiment item","yes","liesli.osexp","C:/Users/annar/OneDrive/Active/Inderect_questions_li_esli/Exp_script","no","mono","no","18","no","white","no","yes","768","9","2","C:/Users/annar/OneDrive/Active/Inderect_questions_li_esli/Exp_script/L20NY.csv","PRF","SG","PST","40","Kafkaesque Koffka","3.2.7","0","2","space","2","NA","4942","101436","4942","NA","2","Коля задумался, если в доме остались конфеты.","1024","2","48000","-16","experiment","PRF","PL","PST","ovs","20","even","150944","NA","105275","3830","150946","NA","3839","NA","67962","158938","3839","158858","153914","150946","92965","153914","NA","NA","67963","New experiment","0","201583","15","yes","1024","7"
"undefined","undefined","12637.5","12637.5","black","legacy","5esli","0","li","esli","uniform","undefined","undefined","undefined","13","0","0","0","13","NA","0","0","0","13","2","13","13","13","1","13","0","0","0","Sun Dec 15 16:49:30 2019","The main experiment item","yes","liesli.osexp","C:/Users/annar/OneDrive/Active/Inderect_questions_li_esli/Exp_script","no","mono","no","18","no","white","no","yes","768","10","2","C:/Users/annar/OneDrive/Active/Inderect_questions_li_esli/Exp_script/L20NY.csv","PRF","PL","PST","10","Kafkaesque Koffka","3.2.7","0","1","space","1","NA","617","101436","617","NA","2","Ученики забыли, если завтра будут занятия.","1024","2","48000","-16","experiment","IMP","PL","FUT","vo","20","even","159230","NA","105275","3830","159232","NA","3839","NA","67962","162843","3839","162763","162143","159232","92965","162143","NA","NA","67963","New experiment","0","202200","16","yes","1024","6"
"undefined","undefined","12325.941176470587","12325.941176470587","black","legacy","11li","0","li","li","uniform","undefined","undefined","undefined","14","0","0","0","14","NA","0","0","0","14","2","14","14","14","1","14","0","0","0","Sun Dec 15 16:49:30 2019","The main experiment item","yes","liesli.osexp","C:/Users/annar/OneDrive/Active/Inderect_questions_li_esli/Exp_script","no","mono","no","18","no","white","no","yes","768","11","2","C:/Users/annar/OneDrive/Active/Inderect_questions_li_esli/Exp_script/L20NY.csv","IMP","PL","PST","21","Kafkaesque Koffka","3.2.7","0","4","space","4","NA","7341","101436","7341","NA","2","Внуки узнавали, приедет ли летом бабушка. ","1024","2","48000","-16","experiment","PRF","SG","FUT","vos","20","even","163229","NA","105275","3830","163230","NA","3839","NA","67962","173370","3839","173290","165943","163230","92965","165943","NA","NA","67963","New experiment","0","209541","17","yes","1024","6"
"undefined","undefined","11807.055555555555","11807.055555555555","black","legacy","9esli","0","li","esli","uniform","undefined","undefined","undefined","15","0","0","0","15","NA","0","0","0","15","2","15","15","15","1","15","0","0","0","Sun Dec 15 16:49:30 2019","The main experiment item","yes","liesli.osexp","C:/Users/annar/OneDrive/Active/Inderect_questions_li_esli/Exp_script","no","mono","no","18","no","white","no","yes","768","12","2","C:/Users/annar/OneDrive/Active/Inderect_questions_li_esli/Exp_script/L20NY.csv","PRF","SG","PST","18","Kafkaesque Koffka","3.2.7","0","1","space","1","NA","2986","101436","2986","NA","2","Катя проверила, если она не забыла перчатки.","1024","2","48000","-16","experiment","PRF","SG","PST","svo","20","even","173745","NA","105275","3830","173747","NA","3839","NA","67962","179764","3839","179684","176692","173747","92965","176692","NA","NA","67963","New experiment","0","212527","18","yes","1024","7"
"undefined","undefined","11270.105263157895","11270.105263157895","black","legacy","19li","0","li","li","uniform","undefined","undefined","undefined","16","0","0","0","16","NA","0","0","0","16","2","16","16","16","1","16","0","0","0","Sun Dec 15 16:49:30 2019","The main experiment item","yes","liesli.osexp","C:/Users/annar/OneDrive/Active/Inderect_questions_li_esli/Exp_script","no","mono","no","18","no","white","no","yes","768","13","2","C:/Users/annar/OneDrive/Active/Inderect_questions_li_esli/Exp_script/L20NY.csv","PRF","PL","PST","37","Kafkaesque Koffka","3.2.7","0","5","space","5","NA","1605","101436","1605","NA","2","Соседи не сказали, полили ли они цветы.","1024","2","48000","-16","experiment","PRF","PL","PST","vso","20","even","180120","NA","105275","3830","180121","NA","3839","NA","67962","184683","3839","184602","182995","180122","92965","182995","NA","NA","67963","New experiment","0","214132","19","yes","1024","7"
"undefined","undefined","10767.25","10767.25","black","legacy","8distr","0","li","distr","uniform","undefined","undefined","undefined","17","0","0","0","17","NA","0","0","0","17","2","17","17","17","1","17","0","0","0","Sun Dec 15 16:49:30 2019","The main experiment item","yes","liesli.osexp","C:/Users/annar/OneDrive/Active/Inderect_questions_li_esli/Exp_script","no","mono","no","18","no","white","no","yes","768","14","2","C:/Users/annar/OneDrive/Active/Inderect_questions_li_esli/Exp_script/L20NY.csv","PRF","SG","FUT","48","Kafkaesque Koffka","3.2.7","0","5","space","5","NA","1213","101436","1213","NA","2","Мама съест пирожное, если оно будет вкусным.","1024","2","48000","-16","experiment","IMP","SG","FUT","sv","20","even","185028","NA","105275","3830","185029","NA","3839","NA","67962","189320","3839","189240","188022","185029","92965","188022","NA","NA","67963","New experiment","0","215345","20","yes","1024","7"
"undefined","undefined","10295.952380952382","10295.952380952382","black","legacy","4distr","0","li","distr","uniform","undefined","undefined","undefined","18","0","0","0","18","NA","0","0","0","18","2","18","18","18","1","18","0","0","0","Sun Dec 15 16:49:30 2019","The main experiment item","yes","liesli.osexp","C:/Users/annar/OneDrive/Active/Inderect_questions_li_esli/Exp_script","no","mono","no","18","no","white","no","yes","768","15","2","C:/Users/annar/OneDrive/Active/Inderect_questions_li_esli/Exp_script/L20NY.csv","PRF","SG","FUT","44","Kafkaesque Koffka","3.2.7","0","5","space","5","NA","870","101436","870","NA","2","Витя помоет посуду, если доделает уроки.","1024","2","48000","-16","experiment","PRF","SG","FUT","(s)vo","20","even","189639","NA","105275","3830","189640","NA","3839","NA","67962","193548","3839","193468","192593","189640","92965","192593","NA","NA","67963","New experiment","0","216215","21","yes","1024","6"
"undefined","undefined","10070.227272727272","10070.227272727272","black","legacy","10esli","0","li","esli","uniform","undefined","undefined","undefined","19","0","0","0","19","NA","0","0","0","19","2","19","19","19","1","19","0","0","0","Sun Dec 15 16:49:30 2019","The main experiment item","yes","liesli.osexp","C:/Users/annar/OneDrive/Active/Inderect_questions_li_esli/Exp_script","no","mono","no","18","no","white","no","yes","768","16","2","C:/Users/annar/OneDrive/Active/Inderect_questions_li_esli/Exp_script/L20NY.csv","IMP","PL","PST","20","Kafkaesque Koffka","3.2.7","0","2","space","2","NA","5330","101436","5330","NA","2","Они интересовались, если журналисты написали про выборы.","1024","2","48000","-16","experiment","PRF","PL","PST","svo","20","even","193867","NA","105275","3830","193868","NA","3839","NA","67962","202627","3839","202547","197214","193868","92965","197213","NA","NA","67963","New experiment","0","221545","22","yes","1024","7"
"undefined","undefined","9926.95652173913","9926.95652173913","black","legacy","9distr","0","li","distr","uniform","undefined","undefined","undefined","20","0","0","0","20","NA","0","0","0","20","2","20","20","20","1","20","0","0","0","Sun Dec 15 16:49:30 2019","The main experiment item","yes","liesli.osexp","C:/Users/annar/OneDrive/Active/Inderect_questions_li_esli/Exp_script","no","mono","no","18","no","white","no","yes","768","17","2","C:/Users/annar/OneDrive/Active/Inderect_questions_li_esli/Exp_script/L20NY.csv","PRF","SG","FUT","49","Kafkaesque Koffka","3.2.7","0","5","space","5","NA","6775","101436","6775","NA","2","Маша позвонит другу, если он будет дома.","1024","2","48000","-16","experiment","IMP","SG","FUT","svo","20","even","202997","NA","105275","3830","202999","NA","3839","NA","67962","212650","3839","212570","205793","202999","92965","205793","NA","NA","67963","New experiment","0","228320","23","yes","1024","7"
"undefined","undefined","9843.541666666666","9843.541666666666","black","legacy","13li","0","li","li","uniform","undefined","undefined","undefined","21","0","0","0","21","NA","0","0","0","21","2","21","21","21","1","21","0","0","0","Sun Dec 15 16:49:30 2019","The main experiment item","yes","liesli.osexp","C:/Users/annar/OneDrive/Active/Inderect_questions_li_esli/Exp_script","no","mono","no","18","no","white","no","yes","768","18","2","C:/Users/annar/OneDrive/Active/Inderect_questions_li_esli/Exp_script/L20NY.csv","PRF","SG","PST","25","Kafkaesque Koffka","3.2.7","0","5","space","5","NA","7925","101436","7925","NA","2","Витя забыл, будет ли во вторник игра.","1024","2","48000","-16","experiment","IMP","SG","FUT","vo","20","even","212949","NA","105275","3830","212950","NA","3839","NA","67962","223250","3839","223170","215243","212950","92965","215243","NA","NA","67963","New experiment","0","236245","24","yes","1024","7"
"undefined","undefined","9511.76","9511.76","black","legacy","7esli","0","li","esli","uniform","undefined","undefined","undefined","22","0","0","0","22","NA","0","0","0","22","2","22","22","22","1","22","0","0","0","Sun Dec 15 16:49:30 2019","The main experiment item","yes","liesli.osexp","C:/Users/annar/OneDrive/Active/Inderect_questions_li_esli/Exp_script","no","mono","no","18","no","white","no","yes","768","19","2","C:/Users/annar/OneDrive/Active/Inderect_questions_li_esli/Exp_script/L20NY.csv","PRF","PL","PST","14","Kafkaesque Koffka","3.2.7","0","1","space","1","NA","1549","101436","1549","NA","2","Братья не сказали, если они покормили собаку.","1024","2","48000","-16","experiment","PRF","PL","PST","svo","20","even","223604","NA","105275","3830","223606","NA","3839","NA","67962","228339","3839","228259","226704","223606","92965","226704","NA","NA","67963","New experiment","0","237794","25","yes","1024","7"
"undefined","undefined","9171.346153846154","9171.346153846154","black","legacy","7distr","0","li","distr","uniform","undefined","undefined","undefined","23","0","0","0","23","NA","0","0","0","23","2","23","23","23","1","23","0","0","0","Sun Dec 15 16:49:30 2019","The main experiment item","yes","liesli.osexp","C:/Users/annar/OneDrive/Active/Inderect_questions_li_esli/Exp_script","no","mono","no","18","no","white","no","yes","768","20","2","C:/Users/annar/OneDrive/Active/Inderect_questions_li_esli/Exp_script/L20NY.csv","PRF","SG","FUT","47","Kafkaesque Koffka","3.2.7","0","5","space","5","NA","661","101436","661","NA","2","Рита останется дома, если сильно заболеет.","1024","2","48000","-16","experiment","PRF","SG","FUT","(s)ov","20","even","228646","NA","105275","3830","228647","NA","3839","NA","67962","232349","3839","232269","231605","228648","92965","231605","NA","NA","67963","New experiment","0","238455","26","yes","1024","6"
"undefined","undefined","8862.777777777777","8862.777777777777","black","legacy","16li","0","li","li","uniform","undefined","undefined","undefined","24","0","0","0","24","NA","0","0","0","24","2","24","24","24","1","24","0","0","0","Sun Dec 15 16:49:30 2019","The main experiment item","yes","liesli.osexp","C:/Users/annar/OneDrive/Active/Inderect_questions_li_esli/Exp_script","no","mono","no","18","no","white","no","yes","768","21","2","C:/Users/annar/OneDrive/Active/Inderect_questions_li_esli/Exp_script/L20NY.csv","IMP","PL","PST","31","Kafkaesque Koffka","3.2.7","0","5","space","5","NA","840","101436","840","NA","2","Родители сомневались, помыл ли Даня посуду.","1024","2","48000","-16","experiment","PRF","SG","PST","vso","20","even","232671","NA","105275","3830","232673","NA","3839","NA","67962","236477","3839","236397","235553","232673","92965","235553","NA","NA","67963","New experiment","0","239295","27","yes","1024","6"
"undefined","undefined","8585.857142857143","8585.857142857143","black","legacy","5distr","0","li","distr","uniform","undefined","undefined","undefined","25","0","0","0","25","NA","0","0","0","25","2","25","25","25","1","25","0","0","0","Sun Dec 15 16:49:30 2019","The main experiment item","yes","liesli.osexp","C:/Users/annar/OneDrive/Active/Inderect_questions_li_esli/Exp_script","no","mono","no","18","no","white","no","yes","768","22","2","C:/Users/annar/OneDrive/Active/Inderect_questions_li_esli/Exp_script/L20NY.csv","PRF","SG","FUT","45","Kafkaesque Koffka","3.2.7","0","5","space","5","NA","1109","101436","1109","NA","2","Саша доест яблоко, если оно будет сладким.","1024","2","48000","-16","experiment","IMP","SG","FUT","sv","20","even","236794","NA","105275","3830","236796","NA","3839","NA","67962","240968","3839","240888","239773","236796","92965","239773","NA","NA","67963","New experiment","0","240404","28","yes","1024","7"
"undefined","undefined","8317.206896551725","8317.206896551725","black","legacy","14li","0","li","li","uniform","undefined","undefined","undefined","26","0","0","0","26","NA","0","0","0","26","2","26","26","26","1","26","0","0","0","Sun Dec 15 16:49:30 2019","The main experiment item","yes","liesli.osexp","C:/Users/annar/OneDrive/Active/Inderect_questions_li_esli/Exp_script","no","mono","no","18","no","white","no","yes","768","23","2","C:/Users/annar/OneDrive/Active/Inderect_questions_li_esli/Exp_script/L20NY.csv","IMP","PL","PST","27","Kafkaesque Koffka","3.2.7","0","5","space","5","NA","795","101436","795","NA","2","Мальчики не знали, принесли ли друзья торт.","1024","2","48000","-16","experiment","PRF","PL","PST","vso","20","even","241283","NA","105275","3830","241285","NA","3839","NA","67962","244903","3839","244823","244023","241285","92965","244023","NA","NA","67963","New experiment","0","241199","29","yes","1024","7"
"undefined","undefined","8059.666666666667","8059.666666666667","black","legacy","2distr","0","li","distr","uniform","undefined","undefined","undefined","27","0","0","0","27","NA","0","0","0","27","2","27","27","27","1","27","0","0","0","Sun Dec 15 16:49:30 2019","The main experiment item","yes","liesli.osexp","C:/Users/annar/OneDrive/Active/Inderect_questions_li_esli/Exp_script","no","mono","no","18","no","white","no","yes","768","24","2","C:/Users/annar/OneDrive/Active/Inderect_questions_li_esli/Exp_script/L20NY.csv","PRF","SG","FUT","42","Kafkaesque Koffka","3.2.7","0","5","space","5","NA","591","101436","591","NA","2","Вася купит картошку, если придёт зарплата.","1024","2","48000","-16","experiment","IMP","SG","FUT","svo","20","even","245229","NA","105275","3830","245231","NA","3839","NA","67962","248770","3839","248690","248095","245231","92965","248095","NA","NA","67963","New experiment","0","241790","30","yes","1024","#REF!"
"undefined","undefined","7824.967741935484","7824.967741935484","black","legacy","4esli","0","li","esli","uniform","undefined","undefined","undefined","28","0","0","0","28","NA","0","0","0","28","2","28","28","28","1","28","0","0","0","Sun Dec 15 16:49:30 2019","The main experiment item","yes","liesli.osexp","C:/Users/annar/OneDrive/Active/Inderect_questions_li_esli/Exp_script","no","mono","no","18","no","white","no","yes","768","25","2","C:/Users/annar/OneDrive/Active/Inderect_questions_li_esli/Exp_script/L20NY.csv","PRF","SG","PST","8","Kafkaesque Koffka","3.2.7","0","1","space","1","NA","784","101436","784","NA","2","Петя спросил, если Вася смотрел кино.","1024","2","48000","-16","experiment","IMP","SG","PST","svo","20","even","249043","NA","105275","3830","249044","NA","3839","NA","67962","252550","3839","252470","251682","249044","92965","251682","NA","NA","67963","New experiment","0","242574","31","yes","1024","6"
"undefined","undefined","7643.1875","7643.1875","black","legacy","17li","0","li","li","uniform","undefined","undefined","undefined","29","0","0","0","29","NA","0","0","0","29","2","29","29","29","1","29","0","0","0","Sun Dec 15 16:49:30 2019","The main experiment item","yes","liesli.osexp","C:/Users/annar/OneDrive/Active/Inderect_questions_li_esli/Exp_script","no","mono","no","18","no","white","no","yes","768","26","2","C:/Users/annar/OneDrive/Active/Inderect_questions_li_esli/Exp_script/L20NY.csv","PRF","SG","PST","33","Kafkaesque Koffka","3.2.7","0","5","space","5","NA","2008","101436","2008","NA","2","Вася не решил, купит ли он газету.","1024","2","48000","-16","experiment","PRF","SG","FUT","vso","20","even","252876","NA","105275","3830","252878","NA","3839","NA","67962","257298","3839","257218","255204","252878","92965","255203","NA","NA","67963","New experiment","0","244582","32","yes","1024","7"
