"acc","accuracy","average_response_time","avg_rt","background","canvas_backend","coding","compensation","condition","conditon","coordinates","correct","correct_next","correct_response_1","count_exp_sequence","count_exp_sequence1","count_exp_sequence2","count_experiment","count_fixation","count_getting_started","count_instr","count_list1","count_list2","count_logger","count_next","count_pause","count_response_1","count_sound","count_start_exp","count_task","count_thanks","count_training1","count_training2","datetime","description","disable_garbage_collection","experiment_file","experiment_path","font_bold","font_family","font_italic","font_size","font_underline","foreground","form_clicks","fullscreen","height","live_row","live_row_training2","logfile","main_asp","main_num","main_tense","num","opensesame_codename","opensesame_version","repeat_cycle","response","response_next","response_response_1","response_thanks","response_time","response_time_next","response_time_response_1","response_time_thanks","round_decimals","sentence_rus","sound_buf_size","sound_channels","sound_freq","sound_sample_size","start","sub_asp","sub_num","sub_tense","sub_wo","subject_nr","subject_parity","time_exp_sequence","time_exp_sequence1","time_exp_sequence2","time_experiment","time_fixation","time_getting_started","time_instr","time_list1","time_list2","time_logger","time_next","time_pause","time_response_1","time_sound","time_start_exp","time_task","time_thanks","time_training1","time_training2","title","total_correct","total_response_time","total_responses","uniform_coordinates","width","word_count"
"undefined","undefined","9318.5","9318.5","black","legacy","10distr","0","distr","NA","uniform","undefined","undefined","undefined","0","0","0","0","0","NA","0","0","0","0","2","0","0","0","1","0","0","0","0","Tue Dec 17 18:15:07 2019","The main experiment item","yes","liesli.osexp","C:/Users/annar/OneDrive/Active/Inderect_questions_li_esli/Exp_script","no","mono","no","18","no","white","no","yes","768","0","0","C:/Users/annar/OneDrive/Active/Inderect_questions_li_esli/Exp_script/L26NY.csv","PRF","SG","FUT","50","Kafkaesque Koffka","3.2.7","0","5","space","5","NA","1691","16946","1691","NA","2","Дима проверит почту, если компьютер включится.","1024","2","48000","-16","experiment","PRF","SG","FUT","sv","26","even","22808","NA","NA","5524","22809","NA","5536","NA","22483","27620","5536","27540","25844","22810","NA","25844","NA","NA","22484","New experiment","0","18637","2","yes","1024","6"
"undefined","undefined","7091.666666666667","7091.666666666667","black","legacy","2esli","0","esli","NA","uniform","undefined","undefined","undefined","1","0","0","0","1","NA","0","0","0","1","2","1","1","1","1","1","0","0","0","Tue Dec 17 18:15:07 2019","The main experiment item","yes","liesli.osexp","C:/Users/annar/OneDrive/Active/Inderect_questions_li_esli/Exp_script","no","mono","no","18","no","white","no","yes","768","1","1","C:/Users/annar/OneDrive/Active/Inderect_questions_li_esli/Exp_script/L26NY.csv","PRF","PL","PST","4","Kafkaesque Koffka","3.2.7","0","1","space","1","NA","2638","16946","2638","NA","2","Гости не сообщили, если они приедут.","1024","2","48000","-16","experiment","PRF","PL","FUT","so","26","even","27944","NA","NA","5524","27947","NA","5536","NA","22483","33274","5536","33194","30552","27947","NA","30551","NA","NA","22484","New experiment","0","21275","3","yes","1024","6"
"undefined","undefined","5648.75","5648.75","black","legacy","12li","0","li","NA","uniform","undefined","undefined","undefined","2","0","0","0","2","NA","0","0","0","2","2","2","2","2","1","2","0","0","0","Tue Dec 17 18:15:07 2019","The main experiment item","yes","liesli.osexp","C:/Users/annar/OneDrive/Active/Inderect_questions_li_esli/Exp_script","no","mono","no","18","no","white","no","yes","768","2","2","C:/Users/annar/OneDrive/Active/Inderect_questions_li_esli/Exp_script/L26NY.csv","PRF","SG","PST","23","Kafkaesque Koffka","3.2.7","0","5","space","5","NA","1320","16946","1320","NA","2","Нина спросила, поели ли дети.","1024","2","48000","-16","experiment","PRF","PL","PST","vos","26","even","33625","NA","NA","5524","33626","NA","5536","NA","22483","37225","5536","37145","35821","33626","NA","35821","NA","NA","22484","New experiment","0","22595","4","yes","1024","5"
"undefined","undefined","11051","11051","black","legacy","8esli","0","li","esli","uniform","undefined","undefined","undefined","3","0","0","0","3","NA","0","0","0","3","2","3","3","3","1","3","0","0","0","Tue Dec 17 18:15:07 2019","The main experiment item","yes","liesli.osexp","C:/Users/annar/OneDrive/Active/Inderect_questions_li_esli/Exp_script","no","mono","no","18","no","white","no","yes","768","0","2","C:/Users/annar/OneDrive/Active/Inderect_questions_li_esli/Exp_script/L26NY.csv","PRF","SG","PST","16","Kafkaesque Koffka","3.2.7","0","1","space","1","NA","1368","42343","1368","NA","2","Миша уточнил, если на обед будет суп.","1024","2","48000","-16","experiment","IMP","SG","FUT","ovs","26","even","48153","NA","47880","5524","48155","NA","5536","NA","22483","52185","5536","52105","50732","48155","37264","50732","NA","NA","22484","New experiment","0","66306","6","yes","1024","7"
"undefined","undefined","9610","9610","black","legacy","1esli","0","li","esli","uniform","undefined","undefined","undefined","4","0","0","0","4","NA","0","0","0","4","2","4","4","4","1","4","0","0","0","Tue Dec 17 18:15:07 2019","The main experiment item","yes","liesli.osexp","C:/Users/annar/OneDrive/Active/Inderect_questions_li_esli/Exp_script","no","mono","no","18","no","white","no","yes","768","1","2","C:/Users/annar/OneDrive/Active/Inderect_questions_li_esli/Exp_script/L26NY.csv","IMP","SG","PST","2","Kafkaesque Koffka","3.2.7","0","1","space","1","NA","964","42343","964","NA","2","Саша не знала, если дети придут домой.","1024","2","48000","-16","experiment","PRF","PL","FUT","svo","26","even","52451","NA","47880","5524","52453","NA","5536","NA","22483","56263","5536","56183","55213","52453","37264","55213","NA","NA","22484","New experiment","0","67270","7","yes","1024","7"
"undefined","undefined","8600.75","8600.75","black","legacy","18li","0","li","li","uniform","undefined","undefined","undefined","5","0","0","0","5","NA","0","0","0","5","2","5","5","5","1","5","0","0","0","Tue Dec 17 18:15:07 2019","The main experiment item","yes","liesli.osexp","C:/Users/annar/OneDrive/Active/Inderect_questions_li_esli/Exp_script","no","mono","no","18","no","white","no","yes","768","2","2","C:/Users/annar/OneDrive/Active/Inderect_questions_li_esli/Exp_script/L26NY.csv","PRF","PL","PST","35","Kafkaesque Koffka","3.2.7","0","5","space","5","NA","1536","42343","1536","NA","2","Хозяева уточнили, выключила ли Маша плиту.","1024","2","48000","-16","experiment","PRF","SG","PST","vso","26","even","56579","NA","47880","5524","56581","NA","5536","NA","22483","61251","5536","61171","59633","56581","37264","59633","NA","NA","22484","New experiment","0","68806","8","yes","1024","6"
"undefined","undefined","7861.888888888889","7861.888888888889","black","legacy","3distr","0","li","distr","uniform","undefined","undefined","undefined","6","0","0","0","6","NA","0","0","0","6","2","6","6","6","1","6","0","0","0","Tue Dec 17 18:15:07 2019","The main experiment item","yes","liesli.osexp","C:/Users/annar/OneDrive/Active/Inderect_questions_li_esli/Exp_script","no","mono","no","18","no","white","no","yes","768","3","2","C:/Users/annar/OneDrive/Active/Inderect_questions_li_esli/Exp_script/L26NY.csv","PRF","SG","FUT","43","Kafkaesque Koffka","3.2.7","0","5","space","5","NA","1951","42343","1951","NA","2","Таня посмотрит новости, если заработает телевизор.","1024","2","48000","-16","experiment","PRF","SG","FUT","vs","26","even","61620","NA","47880","5524","61622","NA","5536","NA","22483","66848","5536","66768","64812","61622","37264","64812","NA","NA","22484","New experiment","0","70757","9","yes","1024","6"
"undefined","undefined","7230","7230","black","legacy","1distr","0","li","distr","uniform","undefined","undefined","undefined","7","0","0","0","7","NA","0","0","0","7","2","7","7","7","1","7","0","0","0","Tue Dec 17 18:15:07 2019","The main experiment item","yes","liesli.osexp","C:/Users/annar/OneDrive/Active/Inderect_questions_li_esli/Exp_script","no","mono","no","18","no","white","no","yes","768","4","2","C:/Users/annar/OneDrive/Active/Inderect_questions_li_esli/Exp_script/L26NY.csv","PRF","SG","FUT","41","Kafkaesque Koffka","3.2.7","0","1","space","1","NA","1543","42343","1543","NA","2","Папа придёт поздно, если вечером будет снег.","1024","2","48000","-16","experiment","IMP","PL","FUT","ovs","26","even","67189","NA","47880","5524","67191","NA","5536","NA","22483","71560","5536","71480","69931","67191","37264","69931","NA","NA","22484","New experiment","0","72300","10","yes","1024","7"
"undefined","undefined","6640.818181818182","6640.818181818182","black","legacy","15li","0","li","li","uniform","undefined","undefined","undefined","8","0","0","0","8","NA","0","0","0","8","2","8","8","8","1","8","0","0","0","Tue Dec 17 18:15:07 2019","The main experiment item","yes","liesli.osexp","C:/Users/annar/OneDrive/Active/Inderect_questions_li_esli/Exp_script","no","mono","no","18","no","white","no","yes","768","5","2","C:/Users/annar/OneDrive/Active/Inderect_questions_li_esli/Exp_script/L26NY.csv","PRF","SG","PST","29","Kafkaesque Koffka","3.2.7","0","5","space","5","NA","749","42343","749","NA","2","Учитель поинтересовался, выполнили ли ученики задание.","1024","2","48000","-16","experiment","PRF","PL","PST","vso","26","even","71969","NA","47880","5524","71971","NA","5536","NA","22483","76487","5536","76407","75652","71971","37264","75652","NA","NA","22484","New experiment","0","73049","11","yes","1024","6"
"undefined","undefined","6195.75","6195.75","black","legacy","3esli","0","li","esli","uniform","undefined","undefined","undefined","9","0","0","0","9","NA","0","0","0","9","2","9","9","9","1","9","0","0","0","Tue Dec 17 18:15:07 2019","The main experiment item","yes","liesli.osexp","C:/Users/annar/OneDrive/Active/Inderect_questions_li_esli/Exp_script","no","mono","no","18","no","white","no","yes","768","6","2","C:/Users/annar/OneDrive/Active/Inderect_questions_li_esli/Exp_script/L26NY.csv","IMP","PL","PST","6","Kafkaesque Koffka","3.2.7","0","1","space","1","NA","1300","42343","1300","NA","2","Туристы сомневались, если вечером будет дождь.","1024","2","48000","-16","experiment","IMP","SG","FUT","vs","26","even","76855","NA","47880","5524","76857","NA","5536","NA","22483","81176","5536","81095","79792","76857","37264","79792","NA","NA","22484","New experiment","0","74349","12","yes","1024","6"
"undefined","undefined","5792.307692307692","5792.307692307692","black","legacy","6distr","0","li","distr","uniform","undefined","undefined","undefined","10","0","0","0","10","NA","0","0","0","10","2","10","10","10","1","10","0","0","0","Tue Dec 17 18:15:07 2019","The main experiment item","yes","liesli.osexp","C:/Users/annar/OneDrive/Active/Inderect_questions_li_esli/Exp_script","no","mono","no","18","no","white","no","yes","768","7","2","C:/Users/annar/OneDrive/Active/Inderect_questions_li_esli/Exp_script/L26NY.csv","PRF","SG","FUT","46","Kafkaesque Koffka","3.2.7","0","5","space","5","NA","951","42343","951","NA","2","Женя пойдёт гулять, если его позовут.","1024","2","48000","-16","experiment","PRF","SG","FUT","ov","26","even","81518","NA","47880","5524","81520","NA","5536","NA","22483","85067","5536","84987","84033","81520","37264","84032","NA","NA","22484","New experiment","0","75300","13","yes","1024","6"
"undefined","undefined","5484.857142857143","5484.857142857143","black","legacy","6li","0","li","li","uniform","undefined","undefined","undefined","11","0","0","0","11","NA","0","0","0","11","2","11","11","11","1","11","0","0","0","Tue Dec 17 18:15:07 2019","The main experiment item","yes","liesli.osexp","C:/Users/annar/OneDrive/Active/Inderect_questions_li_esli/Exp_script","no","mono","no","18","no","white","no","yes","768","8","2","C:/Users/annar/OneDrive/Active/Inderect_questions_li_esli/Exp_script/L26NY.csv","PRF","SG","PST","11","Kafkaesque Koffka","3.2.7","0","5","space","5","NA","1488","42343","1488","NA","2","Лена задумалась, понравились ли ей подарки.","1024","2","48000","-16","experiment","PRF","PL","PST","vos","26","even","85386","NA","47880","5524","85387","NA","5536","NA","22483","89766","5536","89685","88192","85387","37264","88192","NA","NA","22484","New experiment","0","76788","14","yes","1024","6"
"undefined","undefined","5167.533333333334","5167.533333333334","black","legacy","20esli","0","li","esli","uniform","undefined","undefined","undefined","12","0","0","0","12","NA","0","0","0","12","2","12","12","12","1","12","0","0","0","Tue Dec 17 18:15:07 2019","The main experiment item","yes","liesli.osexp","C:/Users/annar/OneDrive/Active/Inderect_questions_li_esli/Exp_script","no","mono","no","18","no","white","no","yes","768","9","2","C:/Users/annar/OneDrive/Active/Inderect_questions_li_esli/Exp_script/L26NY.csv","PRF","SG","PST","40","Kafkaesque Koffka","3.2.7","0","1","space","1","NA","725","42343","725","NA","2","Коля задумался, если в доме остались конфеты.","1024","2","48000","-16","experiment","PRF","PL","PST","ovs","26","even","90075","NA","47880","5524","90077","NA","5536","NA","22483","93854","5536","93774","93044","90077","37264","93044","NA","NA","22484","New experiment","0","77513","15","yes","1024","7"
"undefined","undefined","4874","4874","black","legacy","5esli","0","li","esli","uniform","undefined","undefined","undefined","13","0","0","0","13","NA","0","0","0","13","2","13","13","13","1","13","0","0","0","Tue Dec 17 18:15:07 2019","The main experiment item","yes","liesli.osexp","C:/Users/annar/OneDrive/Active/Inderect_questions_li_esli/Exp_script","no","mono","no","18","no","white","no","yes","768","10","2","C:/Users/annar/OneDrive/Active/Inderect_questions_li_esli/Exp_script/L26NY.csv","PRF","PL","PST","10","Kafkaesque Koffka","3.2.7","0","1","space","1","NA","471","42343","471","NA","2","Ученики забыли, если завтра будут занятия.","1024","2","48000","-16","experiment","IMP","PL","FUT","vo","26","even","94181","NA","47880","5524","94183","NA","5536","NA","22483","97649","5536","97569","97093","94183","37264","97093","NA","NA","22484","New experiment","0","77984","16","yes","1024","6"
"undefined","undefined","4660.058823529412","4660.058823529412","black","legacy","11li","0","li","li","uniform","undefined","undefined","undefined","14","0","0","0","14","NA","0","0","0","14","2","14","14","14","1","14","0","0","0","Tue Dec 17 18:15:07 2019","The main experiment item","yes","liesli.osexp","C:/Users/annar/OneDrive/Active/Inderect_questions_li_esli/Exp_script","no","mono","no","18","no","white","no","yes","768","11","2","C:/Users/annar/OneDrive/Active/Inderect_questions_li_esli/Exp_script/L26NY.csv","IMP","PL","PST","21","Kafkaesque Koffka","3.2.7","0","5","space","5","NA","1237","42343","1237","NA","2","Внуки узнавали, приедет ли летом бабушка. ","1024","2","48000","-16","experiment","PRF","SG","FUT","vos","26","even","98019","NA","47880","5524","98021","NA","5536","NA","22483","102065","5536","101985","100743","98021","37264","100743","NA","NA","22484","New experiment","0","79221","17","yes","1024","6"
"undefined","undefined","4491.388888888889","4491.388888888889","black","legacy","9esli","0","li","esli","uniform","undefined","undefined","undefined","15","0","0","0","15","NA","0","0","0","15","2","15","15","15","1","15","0","0","0","Tue Dec 17 18:15:07 2019","The main experiment item","yes","liesli.osexp","C:/Users/annar/OneDrive/Active/Inderect_questions_li_esli/Exp_script","no","mono","no","18","no","white","no","yes","768","12","2","C:/Users/annar/OneDrive/Active/Inderect_questions_li_esli/Exp_script/L26NY.csv","PRF","SG","PST","18","Kafkaesque Koffka","3.2.7","0","1","space","1","NA","1624","42343","1624","NA","2","Катя проверила, если она не забыла перчатки.","1024","2","48000","-16","experiment","PRF","SG","PST","svo","26","even","102384","NA","47880","5524","102386","NA","5536","NA","22483","107052","5536","106972","105344","102386","37264","105344","NA","NA","22484","New experiment","0","80845","18","yes","1024","7"
"undefined","undefined","4290.894736842105","4290.894736842105","black","legacy","19li","0","li","li","uniform","undefined","undefined","undefined","16","0","0","0","16","NA","0","0","0","16","2","16","16","16","1","16","0","0","0","Tue Dec 17 18:15:07 2019","The main experiment item","yes","liesli.osexp","C:/Users/annar/OneDrive/Active/Inderect_questions_li_esli/Exp_script","no","mono","no","18","no","white","no","yes","768","13","2","C:/Users/annar/OneDrive/Active/Inderect_questions_li_esli/Exp_script/L26NY.csv","PRF","PL","PST","37","Kafkaesque Koffka","3.2.7","0","5","space","5","NA","682","42343","682","NA","2","Соседи не сказали, полили ли они цветы.","1024","2","48000","-16","experiment","PRF","PL","PST","vso","26","even","107408","NA","47880","5524","107410","NA","5536","NA","22483","111058","5536","110978","110294","107410","37264","110294","NA","NA","22484","New experiment","0","81527","19","yes","1024","7"
"undefined","undefined","4111.8","4111.8","black","legacy","8distr","0","li","distr","uniform","undefined","undefined","undefined","17","0","0","0","17","NA","0","0","0","17","2","17","17","17","1","17","0","0","0","Tue Dec 17 18:15:07 2019","The main experiment item","yes","liesli.osexp","C:/Users/annar/OneDrive/Active/Inderect_questions_li_esli/Exp_script","no","mono","no","18","no","white","no","yes","768","14","2","C:/Users/annar/OneDrive/Active/Inderect_questions_li_esli/Exp_script/L26NY.csv","PRF","SG","FUT","48","Kafkaesque Koffka","3.2.7","0","5","space","5","NA","709","42343","709","NA","2","Мама съест пирожное, если оно будет вкусным.","1024","2","48000","-16","experiment","IMP","SG","FUT","sv","26","even","111372","NA","47880","5524","111374","NA","5536","NA","22483","115168","5536","115088","114375","111374","37264","114374","NA","NA","22484","New experiment","0","82236","20","yes","1024","7"
"undefined","undefined","3966.809523809524","3966.809523809524","black","legacy","4distr","0","li","distr","uniform","undefined","undefined","undefined","18","0","0","0","18","NA","0","0","0","18","2","18","18","18","1","18","0","0","0","Tue Dec 17 18:15:07 2019","The main experiment item","yes","liesli.osexp","C:/Users/annar/OneDrive/Active/Inderect_questions_li_esli/Exp_script","no","mono","no","18","no","white","no","yes","768","15","2","C:/Users/annar/OneDrive/Active/Inderect_questions_li_esli/Exp_script/L26NY.csv","PRF","SG","FUT","44","Kafkaesque Koffka","3.2.7","0","5","space","5","NA","1067","42343","1067","NA","2","Витя помоет посуду, если доделает уроки.","1024","2","48000","-16","experiment","PRF","SG","FUT","(s)vo","26","even","115498","NA","47880","5524","115500","NA","5536","NA","22483","119595","5536","119514","118443","115500","37264","118443","NA","NA","22484","New experiment","0","83303","21","yes","1024","6"
"undefined","undefined","3832.6363636363635","3832.6363636363635","black","legacy","10esli","0","li","esli","uniform","undefined","undefined","undefined","19","0","0","0","19","NA","0","0","0","19","2","19","19","19","1","19","0","0","0","Tue Dec 17 18:15:07 2019","The main experiment item","yes","liesli.osexp","C:/Users/annar/OneDrive/Active/Inderect_questions_li_esli/Exp_script","no","mono","no","18","no","white","no","yes","768","16","2","C:/Users/annar/OneDrive/Active/Inderect_questions_li_esli/Exp_script/L26NY.csv","IMP","PL","PST","20","Kafkaesque Koffka","3.2.7","0","1","space","1","NA","1015","42343","1015","NA","2","Они интересовались, если журналисты написали про выборы.","1024","2","48000","-16","experiment","PRF","PL","PST","svo","26","even","119961","NA","47880","5524","119963","NA","5536","NA","22483","124432","5536","124351","123333","119963","37264","123333","NA","NA","22484","New experiment","0","84318","22","yes","1024","7"
"undefined","undefined","3697.086956521739","3697.086956521739","black","legacy","9distr","0","li","distr","uniform","undefined","undefined","undefined","20","0","0","0","20","NA","0","0","0","20","2","20","20","20","1","20","0","0","0","Tue Dec 17 18:15:07 2019","The main experiment item","yes","liesli.osexp","C:/Users/annar/OneDrive/Active/Inderect_questions_li_esli/Exp_script","no","mono","no","18","no","white","no","yes","768","17","2","C:/Users/annar/OneDrive/Active/Inderect_questions_li_esli/Exp_script/L26NY.csv","PRF","SG","FUT","49","Kafkaesque Koffka","3.2.7","0","5","space","5","NA","715","42343","715","NA","2","Маша позвонит другу, если он будет дома.","1024","2","48000","-16","experiment","IMP","SG","FUT","svo","26","even","124765","NA","47880","5524","124767","NA","5536","NA","22483","128373","5536","128293","127573","124767","37264","127573","NA","NA","22484","New experiment","0","85033","23","yes","1024","7"
"undefined","undefined","3575.7916666666665","3575.7916666666665","black","legacy","13li","0","li","li","uniform","undefined","undefined","undefined","21","0","0","0","21","NA","0","0","0","21","2","21","21","21","1","21","0","0","0","Tue Dec 17 18:15:07 2019","The main experiment item","yes","liesli.osexp","C:/Users/annar/OneDrive/Active/Inderect_questions_li_esli/Exp_script","no","mono","no","18","no","white","no","yes","768","18","2","C:/Users/annar/OneDrive/Active/Inderect_questions_li_esli/Exp_script/L26NY.csv","PRF","SG","PST","25","Kafkaesque Koffka","3.2.7","0","5","space","5","NA","786","42343","786","NA","2","Витя забыл, будет ли во вторник игра.","1024","2","48000","-16","experiment","IMP","SG","FUT","vo","26","even","128664","NA","47880","5524","128665","NA","5536","NA","22483","131843","5536","131763","130971","128665","37264","130971","NA","NA","22484","New experiment","0","85819","24","yes","1024","7"
"undefined","undefined","3450.8","3450.8","black","legacy","7esli","0","li","esli","uniform","undefined","undefined","undefined","22","0","0","0","22","NA","0","0","0","22","2","22","22","22","1","22","0","0","0","Tue Dec 17 18:15:07 2019","The main experiment item","yes","liesli.osexp","C:/Users/annar/OneDrive/Active/Inderect_questions_li_esli/Exp_script","no","mono","no","18","no","white","no","yes","768","19","2","C:/Users/annar/OneDrive/Active/Inderect_questions_li_esli/Exp_script/L26NY.csv","PRF","PL","PST","14","Kafkaesque Koffka","3.2.7","0","1","space","1","NA","451","42343","451","NA","2","Братья не сказали, если они покормили собаку.","1024","2","48000","-16","experiment","PRF","PL","PST","svo","26","even","132151","NA","47880","5524","132152","NA","5536","NA","22483","135767","5536","135687","135233","132153","37264","135233","NA","NA","22484","New experiment","0","86270","25","yes","1024","7"
"undefined","undefined","3327.769230769231","3327.769230769231","black","legacy","7distr","0","li","distr","uniform","undefined","undefined","undefined","23","0","0","0","23","NA","0","0","0","23","2","23","23","23","1","23","0","0","0","Tue Dec 17 18:15:07 2019","The main experiment item","yes","liesli.osexp","C:/Users/annar/OneDrive/Active/Inderect_questions_li_esli/Exp_script","no","mono","no","18","no","white","no","yes","768","20","2","C:/Users/annar/OneDrive/Active/Inderect_questions_li_esli/Exp_script/L26NY.csv","PRF","SG","FUT","47","Kafkaesque Koffka","3.2.7","0","5","space","5","NA","252","42343","252","NA","2","Рита останется дома, если сильно заболеет.","1024","2","48000","-16","experiment","PRF","SG","FUT","(s)ov","26","even","136132","NA","47880","5524","136134","NA","5536","NA","22483","139429","5536","139349","139094","136134","37264","139094","NA","NA","22484","New experiment","0","86522","26","yes","1024","6"
"undefined","undefined","3220.4074074074074","3220.4074074074074","black","legacy","16li","0","li","li","uniform","undefined","undefined","undefined","24","0","0","0","24","NA","0","0","0","24","2","24","24","24","1","24","0","0","0","Tue Dec 17 18:15:07 2019","The main experiment item","yes","liesli.osexp","C:/Users/annar/OneDrive/Active/Inderect_questions_li_esli/Exp_script","no","mono","no","18","no","white","no","yes","768","21","2","C:/Users/annar/OneDrive/Active/Inderect_questions_li_esli/Exp_script/L26NY.csv","IMP","PL","PST","31","Kafkaesque Koffka","3.2.7","0","5","space","5","NA","429","42343","429","NA","2","Родители сомневались, помыл ли Даня посуду.","1024","2","48000","-16","experiment","PRF","SG","PST","vso","26","even","139708","NA","47880","5524","139710","NA","5536","NA","22483","143113","5536","143032","142595","139710","37264","142595","NA","NA","22484","New experiment","0","86951","27","yes","1024","6"
"undefined","undefined","3119","3119","black","legacy","5distr","0","li","distr","uniform","undefined","undefined","undefined","25","0","0","0","25","NA","0","0","0","25","2","25","25","25","1","25","0","0","0","Tue Dec 17 18:15:07 2019","The main experiment item","yes","liesli.osexp","C:/Users/annar/OneDrive/Active/Inderect_questions_li_esli/Exp_script","no","mono","no","18","no","white","no","yes","768","22","2","C:/Users/annar/OneDrive/Active/Inderect_questions_li_esli/Exp_script/L26NY.csv","PRF","SG","FUT","45","Kafkaesque Koffka","3.2.7","0","5","space","5","NA","381","42343","381","NA","2","Саша доест яблоко, если оно будет сладким.","1024","2","48000","-16","experiment","IMP","SG","FUT","sv","26","even","143486","NA","47880","5524","143488","NA","5536","NA","22483","146920","5536","146840","146453","143488","37264","146453","NA","NA","22484","New experiment","0","87332","28","yes","1024","7"
"undefined","undefined","3024.2413793103447","3024.2413793103447","black","legacy","14li","0","li","li","uniform","undefined","undefined","undefined","26","0","0","0","26","NA","0","0","0","26","2","26","26","26","1","26","0","0","0","Tue Dec 17 18:15:07 2019","The main experiment item","yes","liesli.osexp","C:/Users/annar/OneDrive/Active/Inderect_questions_li_esli/Exp_script","no","mono","no","18","no","white","no","yes","768","23","2","C:/Users/annar/OneDrive/Active/Inderect_questions_li_esli/Exp_script/L26NY.csv","IMP","PL","PST","27","Kafkaesque Koffka","3.2.7","0","5","space","5","NA","371","42343","371","NA","2","Мальчики не знали, принесли ли друзья торт.","1024","2","48000","-16","experiment","PRF","PL","PST","vso","26","even","147262","NA","47880","5524","147263","NA","5536","NA","22483","150477","5536","150396","150022","147264","37264","150022","NA","NA","22484","New experiment","0","87703","29","yes","1024","7"
"undefined","undefined","2936.4","2936.4","black","legacy","2distr","0","li","distr","uniform","undefined","undefined","undefined","27","0","0","0","27","NA","0","0","0","27","2","27","27","27","1","27","0","0","0","Tue Dec 17 18:15:07 2019","The main experiment item","yes","liesli.osexp","C:/Users/annar/OneDrive/Active/Inderect_questions_li_esli/Exp_script","no","mono","no","18","no","white","no","yes","768","24","2","C:/Users/annar/OneDrive/Active/Inderect_questions_li_esli/Exp_script/L26NY.csv","PRF","SG","FUT","42","Kafkaesque Koffka","3.2.7","0","5","space","5","NA","389","42343","389","NA","2","Вася купит картошку, если придёт зарплата.","1024","2","48000","-16","experiment","IMP","SG","FUT","svo","26","even","150801","NA","47880","5524","150803","NA","5536","NA","22483","154137","5536","154057","153663","150803","37264","153663","NA","NA","22484","New experiment","0","88092","30","yes","1024","#REF!"
"undefined","undefined","2853.6129032258063","2853.6129032258063","black","legacy","4esli","0","li","esli","uniform","undefined","undefined","undefined","28","0","0","0","28","NA","0","0","0","28","2","28","28","28","1","28","0","0","0","Tue Dec 17 18:15:07 2019","The main experiment item","yes","liesli.osexp","C:/Users/annar/OneDrive/Active/Inderect_questions_li_esli/Exp_script","no","mono","no","18","no","white","no","yes","768","25","2","C:/Users/annar/OneDrive/Active/Inderect_questions_li_esli/Exp_script/L26NY.csv","PRF","SG","PST","8","Kafkaesque Koffka","3.2.7","0","1","space","1","NA","370","42343","370","NA","2","Петя спросил, если Вася смотрел кино.","1024","2","48000","-16","experiment","IMP","SG","PST","svo","26","even","154428","NA","47880","5524","154429","NA","5536","NA","22483","157537","5536","157457","157083","154429","37264","157083","NA","NA","22484","New experiment","0","88462","31","yes","1024","6"
"undefined","undefined","2776.15625","2776.15625","black","legacy","17li","0","li","li","uniform","undefined","undefined","undefined","29","0","0","0","29","NA","0","0","0","29","2","29","29","29","1","29","0","0","0","Tue Dec 17 18:15:07 2019","The main experiment item","yes","liesli.osexp","C:/Users/annar/OneDrive/Active/Inderect_questions_li_esli/Exp_script","no","mono","no","18","no","white","no","yes","768","26","2","C:/Users/annar/OneDrive/Active/Inderect_questions_li_esli/Exp_script/L26NY.csv","PRF","SG","PST","33","Kafkaesque Koffka","3.2.7","0","5","space","5","NA","375","42343","375","NA","2","Вася не решил, купит ли он газету.","1024","2","48000","-16","experiment","PRF","SG","FUT","vso","26","even","157843","NA","47880","5524","157845","NA","5536","NA","22483","160611","5536","160531","160153","157845","37264","160153","NA","NA","22484","New experiment","0","88837","32","yes","1024","7"
