"acc","accuracy","average_response_time","avg_rt","background","canvas_backend","coding","compensation","condition","conditon","coordinates","correct","correct_next","correct_response_1","count_exp_sequence","count_exp_sequence1","count_exp_sequence2","count_experiment","count_fixation","count_getting_started","count_instr","count_list1","count_list2","count_logger","count_next","count_pause","count_response_1","count_sound","count_start_exp","count_task","count_thanks","count_training1","count_training2","datetime","description","disable_garbage_collection","experiment_file","experiment_path","font_bold","font_family","font_italic","font_size","font_underline","foreground","form_clicks","fullscreen","height","live_row","live_row_training2","logfile","main_asp","main_num","main_tense","num","opensesame_codename","opensesame_version","repeat_cycle","response","response_next","response_response_1","response_thanks","response_time","response_time_next","response_time_response_1","response_time_thanks","round_decimals","sentence_rus","sound_buf_size","sound_channels","sound_freq","sound_sample_size","start","sub_asp","sub_num","sub_tense","sub_wo","subject_nr","subject_parity","time_exp_sequence","time_exp_sequence1","time_exp_sequence2","time_experiment","time_fixation","time_getting_started","time_instr","time_list1","time_list2","time_logger","time_next","time_pause","time_response_1","time_sound","time_start_exp","time_task","time_thanks","time_training1","time_training2","title","total_correct","total_response_time","total_responses","uniform_coordinates","width","word_count"
"undefined","undefined","18701.5","18701.5","black","legacy","10distr","0","distr","NA","uniform","undefined","undefined","undefined","0","0","0","0","0","NA","0","0","0","0","2","0","0","0","1","0","0","0","0","Thu Jan 16 13:56:05 2020","The main experiment item","yes","liesli.osexp","/Users/olgavorontsova/Downloads","no","mono","no","18","no","white","no","yes","768","0","0","/Users/olgavorontsova/Downloads/subject-38.csv","PRF","SG","FUT","50","Kafkaesque Koffka","3.2.8","0","3","space","3","NA","4906","32497","4906","NA","2","Дима проверит почту, если компьютер включится.","1024","2","48000","-16","experiment","PRF","SG","FUT","sv","38","even","37535","NA","NA","4515","37553","NA","4536","NA","37056","45600","4536","45520","40590","37553","NA","40590","NA","NA","37056","New experiment","0","37403","2","yes","1024","6"
"undefined","undefined","13288.3333333","13288.3333333","black","legacy","2esli","0","esli","NA","uniform","undefined","undefined","undefined","1","0","0","0","1","NA","0","0","0","1","2","1","1","1","1","1","0","0","0","Thu Jan 16 13:56:05 2020","The main experiment item","yes","liesli.osexp","/Users/olgavorontsova/Downloads","no","mono","no","18","no","white","no","yes","768","1","1","/Users/olgavorontsova/Downloads/subject-38.csv","PRF","PL","PST","4","Kafkaesque Koffka","3.2.8","0","1","space","1","NA","2462","32497","2462","NA","2","Гости не сообщили, если они приедут.","1024","2","48000","-16","experiment","PRF","PL","FUT","so","38","even","46042","NA","NA","4515","46055","NA","4536","NA","37056","51248","4536","51168","48684","46055","NA","48683","NA","NA","37056","New experiment","0","39865","3","yes","1024","6"
"undefined","undefined","11493.5","11493.5","black","legacy","12li","0","li","NA","uniform","undefined","undefined","undefined","2","0","0","0","2","NA","0","0","0","2","2","2","2","2","1","2","0","0","0","Thu Jan 16 13:56:05 2020","The main experiment item","yes","liesli.osexp","/Users/olgavorontsova/Downloads","no","mono","no","18","no","white","no","yes","768","2","2","/Users/olgavorontsova/Downloads/subject-38.csv","PRF","SG","PST","23","Kafkaesque Koffka","3.2.8","0","5","space","5","NA","6109","32497","6109","NA","2","Нина спросила, поели ли дети.","1024","2","48000","-16","experiment","PRF","PL","PST","vos","38","even","51640","NA","NA","4515","51652","NA","4536","NA","37056","60062","4536","59982","53851","51652","NA","53850","NA","NA","37056","New experiment","0","45974","4","yes","1024","5"
"undefined","undefined","18589.1666667","18589.1666667","black","legacy","8esli","0","li","esli","uniform","undefined","undefined","undefined","3","0","0","0","3","NA","0","0","0","3","2","3","3","3","1","3","0","0","0","Thu Jan 16 13:56:05 2020","The main experiment item","yes","liesli.osexp","/Users/olgavorontsova/Downloads","no","mono","no","18","no","white","no","yes","768","0","2","/Users/olgavorontsova/Downloads/subject-38.csv","PRF","SG","PST","16","Kafkaesque Koffka","3.2.8","0","1","space","1","NA","1337","64224","1337","NA","2","Миша уточнил, если на обед будет суп.","1024","2","48000","-16","experiment","IMP","SG","FUT","ovs","38","even","69149","NA","68762","4515","69162","NA","4536","NA","37056","73185","4536","73105","71745","69162","60111","71744","NA","NA","37056","New experiment","0","111535","6","yes","1024","7"
"undefined","undefined","15957.5714286","15957.5714286","black","legacy","1esli","0","li","esli","uniform","undefined","undefined","undefined","4","0","0","0","4","NA","0","0","0","4","2","4","4","4","1","4","0","0","0","Thu Jan 16 13:56:05 2020","The main experiment item","yes","liesli.osexp","/Users/olgavorontsova/Downloads","no","mono","no","18","no","white","no","yes","768","1","2","/Users/olgavorontsova/Downloads/subject-38.csv","IMP","SG","PST","2","Kafkaesque Koffka","3.2.8","0","1","space","1","NA","168","64224","168","NA","2","Саша не знала, если дети придут домой.","1024","2","48000","-16","experiment","PRF","PL","FUT","svo","38","even","73626","NA","68762","4515","73639","NA","4536","NA","37056","76681","4536","76601","76418","73639","60111","76418","NA","NA","37056","New experiment","0","111703","7","yes","1024","7"
"undefined","undefined","14039.5","14039.5","black","legacy","18li","0","li","li","uniform","undefined","undefined","undefined","5","0","0","0","5","NA","0","0","0","5","2","5","5","5","1","5","0","0","0","Thu Jan 16 13:56:05 2020","The main experiment item","yes","liesli.osexp","/Users/olgavorontsova/Downloads","no","mono","no","18","no","white","no","yes","768","2","2","/Users/olgavorontsova/Downloads/subject-38.csv","PRF","PL","PST","35","Kafkaesque Koffka","3.2.8","0","5","space","5","NA","613","64224","613","NA","2","Хозяева уточнили, выключила ли Маша плиту.","1024","2","48000","-16","experiment","PRF","SG","PST","vso","38","even","77131","NA","68762","4515","77144","NA","4536","NA","37056","80901","4536","80820","80192","77144","60111","80191","NA","NA","37056","New experiment","0","112316","8","yes","1024","6"
"undefined","undefined","12630.6666667","12630.6666667","black","legacy","3distr","0","li","distr","uniform","undefined","undefined","undefined","6","0","0","0","6","NA","0","0","0","6","2","6","6","6","1","6","0","0","0","Thu Jan 16 13:56:05 2020","The main experiment item","yes","liesli.osexp","/Users/olgavorontsova/Downloads","no","mono","no","18","no","white","no","yes","768","3","2","/Users/olgavorontsova/Downloads/subject-38.csv","PRF","SG","FUT","43","Kafkaesque Koffka","3.2.8","0","5","space","5","NA","1360","64224","1360","NA","2","Таня посмотрит новости, если заработает телевизор.","1024","2","48000","-16","experiment","PRF","SG","FUT","vs","38","even","81372","NA","68762","4515","81384","NA","4536","NA","37056","86038","4536","85958","84582","81385","60111","84582","NA","NA","37056","New experiment","0","113676","9","yes","1024","6"
"undefined","undefined","11607.5","11607.5","black","legacy","1distr","0","li","distr","uniform","undefined","undefined","undefined","7","0","0","0","7","NA","0","0","0","7","2","7","7","7","1","7","0","0","0","Thu Jan 16 13:56:05 2020","The main experiment item","yes","liesli.osexp","/Users/olgavorontsova/Downloads","no","mono","no","18","no","white","no","yes","768","4","2","/Users/olgavorontsova/Downloads/subject-38.csv","PRF","SG","FUT","41","Kafkaesque Koffka","3.2.8","0","4","space","4","NA","2399","64224","2399","NA","2","Папа придёт поздно, если вечером будет снег.","1024","2","48000","-16","experiment","IMP","PL","FUT","ovs","38","even","86472","NA","68762","4515","86485","NA","4536","NA","37056","91730","4536","91650","89235","86485","60111","89235","NA","NA","37056","New experiment","0","116075","10","yes","1024","7"
"undefined","undefined","10700.0909091","10700.0909091","black","legacy","15li","0","li","li","uniform","undefined","undefined","undefined","8","0","0","0","8","NA","0","0","0","8","2","8","8","8","1","8","0","0","0","Thu Jan 16 13:56:05 2020","The main experiment item","yes","liesli.osexp","/Users/olgavorontsova/Downloads","no","mono","no","18","no","white","no","yes","768","5","2","/Users/olgavorontsova/Downloads/subject-38.csv","PRF","SG","PST","29","Kafkaesque Koffka","3.2.8","0","5","space","5","NA","1626","64224","1626","NA","2","Учитель поинтересовался, выполнили ли ученики задание.","1024","2","48000","-16","experiment","PRF","PL","PST","vso","38","even","92219","NA","68762","4515","92231","NA","4536","NA","37056","97657","4536","97576","95936","92232","60111","95936","NA","NA","37056","New experiment","0","117701","11","yes","1024","6"
"undefined","undefined","9851.58333333","9851.58333333","black","legacy","3esli","0","li","esli","uniform","undefined","undefined","undefined","9","0","0","0","9","NA","0","0","0","9","2","9","9","9","1","9","0","0","0","Thu Jan 16 13:56:05 2020","The main experiment item","yes","liesli.osexp","/Users/olgavorontsova/Downloads","no","mono","no","18","no","white","no","yes","768","6","2","/Users/olgavorontsova/Downloads/subject-38.csv","IMP","PL","PST","6","Kafkaesque Koffka","3.2.8","0","1","space","1","NA","518","64224","518","NA","2","Туристы сомневались, если вечером будет дождь.","1024","2","48000","-16","experiment","IMP","SG","FUT","vs","38","even","98121","NA","68762","4515","98134","NA","4536","NA","37056","101690","4536","101609","101077","98134","60111","101077","NA","NA","37056","New experiment","0","118219","12","yes","1024","6"
"undefined","undefined","9254.92307692","9254.92307692","black","legacy","6distr","0","li","distr","uniform","undefined","undefined","undefined","10","0","0","0","10","NA","0","0","0","10","2","10","10","10","1","10","0","0","0","Thu Jan 16 13:56:05 2020","The main experiment item","yes","liesli.osexp","/Users/olgavorontsova/Downloads","no","mono","no","18","no","white","no","yes","768","7","2","/Users/olgavorontsova/Downloads/subject-38.csv","PRF","SG","FUT","46","Kafkaesque Koffka","3.2.8","0","5","space","5","NA","2095","64224","2095","NA","2","Женя пойдёт гулять, если его позовут.","1024","2","48000","-16","experiment","PRF","SG","FUT","ov","38","even","102099","NA","68762","4515","102112","NA","4536","NA","37056","106833","4536","106753","104642","102113","60111","104642","NA","NA","37056","New experiment","0","120314","13","yes","1024","6"
"undefined","undefined","8900.57142857","8900.57142857","black","legacy","6li","0","li","li","uniform","undefined","undefined","undefined","11","0","0","0","11","NA","0","0","0","11","2","11","11","11","1","11","0","0","0","Thu Jan 16 13:56:05 2020","The main experiment item","yes","liesli.osexp","/Users/olgavorontsova/Downloads","no","mono","no","18","no","white","no","yes","768","8","2","/Users/olgavorontsova/Downloads/subject-38.csv","PRF","SG","PST","11","Kafkaesque Koffka","3.2.8","0","3","space","3","NA","4294","64224","4294","NA","2","Лена задумалась, понравились ли ей подарки.","1024","2","48000","-16","experiment","PRF","PL","PST","vos","38","even","107269","NA","68762","4515","107282","NA","4536","NA","37056","114487","4536","114407","110098","107282","60111","110098","NA","NA","37056","New experiment","0","124608","14","yes","1024","6"
"undefined","undefined","8310.26666667","8310.26666667","black","legacy","20esli","0","li","esli","uniform","undefined","undefined","undefined","12","0","0","0","12","NA","0","0","0","12","2","12","12","12","1","12","0","0","0","Thu Jan 16 13:56:05 2020","The main experiment item","yes","liesli.osexp","/Users/olgavorontsova/Downloads","no","mono","no","18","no","white","no","yes","768","9","2","/Users/olgavorontsova/Downloads/subject-38.csv","PRF","SG","PST","40","Kafkaesque Koffka","3.2.8","0","1","space","1","NA","46","64224","46","NA","2","Коля задумался, если в доме остались конфеты.","1024","2","48000","-16","experiment","PRF","PL","PST","ovs","38","even","114957","NA","68762","4515","114970","NA","4536","NA","37056","118065","4536","117985","117924","114970","60111","117923","NA","NA","37056","New experiment","0","124654","15","yes","1024","7"
"undefined","undefined","7793.5625","7793.5625","black","legacy","5esli","0","li","esli","uniform","undefined","undefined","undefined","13","0","0","0","13","NA","0","0","0","13","2","13","13","13","1","13","0","0","0","Thu Jan 16 13:56:05 2020","The main experiment item","yes","liesli.osexp","/Users/olgavorontsova/Downloads","no","mono","no","18","no","white","no","yes","768","10","2","/Users/olgavorontsova/Downloads/subject-38.csv","PRF","PL","PST","10","Kafkaesque Koffka","3.2.8","0","1","space","1","NA","43","64224","43","NA","2","Ученики забыли, если завтра будут занятия.","1024","2","48000","-16","experiment","IMP","PL","FUT","vo","38","even","118511","NA","68762","4515","118523","NA","4536","NA","37056","121591","4536","121511","121453","118524","60111","121453","NA","NA","37056","New experiment","0","124697","16","yes","1024","6"
"undefined","undefined","7419.47058824","7419.47058824","black","legacy","11li","0","li","li","uniform","undefined","undefined","undefined","14","0","0","0","14","NA","0","0","0","14","2","14","14","14","1","14","0","0","0","Thu Jan 16 13:56:05 2020","The main experiment item","yes","liesli.osexp","/Users/olgavorontsova/Downloads","no","mono","no","18","no","white","no","yes","768","11","2","/Users/olgavorontsova/Downloads/subject-38.csv","IMP","PL","PST","21","Kafkaesque Koffka","3.2.8","0","5","space","5","NA","1434","64224","1434","NA","2","Внуки узнавали, приедет ли летом бабушка. ","1024","2","48000","-16","experiment","PRF","SG","FUT","vos","38","even","122021","NA","68762","4515","122034","NA","4536","NA","37056","126303","4536","126223","124774","122034","60111","124774","NA","NA","37056","New experiment","0","126131","17","yes","1024","6"
"undefined","undefined","7018.44444444","7018.44444444","black","legacy","9esli","0","li","esli","uniform","undefined","undefined","undefined","15","0","0","0","15","NA","0","0","0","15","2","15","15","15","1","15","0","0","0","Thu Jan 16 13:56:05 2020","The main experiment item","yes","liesli.osexp","/Users/olgavorontsova/Downloads","no","mono","no","18","no","white","no","yes","768","12","2","/Users/olgavorontsova/Downloads/subject-38.csv","PRF","SG","PST","18","Kafkaesque Koffka","3.2.8","0","1","space","1","NA","201","64224","201","NA","2","Катя проверила, если она не забыла перчатки.","1024","2","48000","-16","experiment","PRF","SG","PST","svo","38","even","126769","NA","68762","4515","126781","NA","4536","NA","37056","130039","4536","129959","129743","126781","60111","129743","NA","NA","37056","New experiment","0","126332","18","yes","1024","7"
"undefined","undefined","6679.57894737","6679.57894737","black","legacy","19li","0","li","li","uniform","undefined","undefined","undefined","16","0","0","0","16","NA","0","0","0","16","2","16","16","16","1","16","0","0","0","Thu Jan 16 13:56:05 2020","The main experiment item","yes","liesli.osexp","/Users/olgavorontsova/Downloads","no","mono","no","18","no","white","no","yes","768","13","2","/Users/olgavorontsova/Downloads/subject-38.csv","PRF","PL","PST","37","Kafkaesque Koffka","3.2.8","0","4","space","4","NA","580","64224","580","NA","2","Соседи не сказали, полили ли они цветы.","1024","2","48000","-16","experiment","PRF","PL","PST","vso","38","even","130472","NA","68762","4515","130485","NA","4536","NA","37056","134050","4536","133970","133375","130485","60111","133375","NA","NA","37056","New experiment","0","126912","19","yes","1024","7"
"undefined","undefined","6858.75","6858.75","black","legacy","8distr","0","li","distr","uniform","undefined","undefined","undefined","17","0","0","0","17","NA","0","0","0","17","2","17","17","17","1","17","0","0","0","Thu Jan 16 13:56:05 2020","The main experiment item","yes","liesli.osexp","/Users/olgavorontsova/Downloads","no","mono","no","18","no","white","no","yes","768","14","2","/Users/olgavorontsova/Downloads/subject-38.csv","PRF","SG","FUT","48","Kafkaesque Koffka","3.2.8","0","3","space","3","NA","10263","64224","10263","NA","2","Мама съест пирожное, если оно будет вкусным.","1024","2","48000","-16","experiment","IMP","SG","FUT","sv","38","even","134505","NA","68762","4515","134518","NA","4536","NA","37056","147897","4536","147816","137533","134518","60111","137532","NA","NA","37056","New experiment","0","137175","20","yes","1024","7"
"undefined","undefined","6737.0952381","6737.0952381","black","legacy","4distr","0","li","distr","uniform","undefined","undefined","undefined","18","0","0","0","18","NA","0","0","0","18","2","18","18","18","1","18","0","0","0","Thu Jan 16 13:56:05 2020","The main experiment item","yes","liesli.osexp","/Users/olgavorontsova/Downloads","no","mono","no","18","no","white","no","yes","768","15","2","/Users/olgavorontsova/Downloads/subject-38.csv","PRF","SG","FUT","44","Kafkaesque Koffka","3.2.8","0","2","space","2","NA","4304","64224","4304","NA","2","Витя помоет посуду, если доделает уроки.","1024","2","48000","-16","experiment","PRF","SG","FUT","(s)vo","38","even","148350","NA","68762","4515","148362","NA","4536","NA","37056","155714","4536","155634","151313","148363","60111","151312","NA","NA","37056","New experiment","0","141479","21","yes","1024","6"
"undefined","undefined","6474.68181818","6474.68181818","black","legacy","10esli","0","li","esli","uniform","undefined","undefined","undefined","19","0","0","0","19","NA","0","0","0","19","2","19","19","19","1","19","0","0","0","Thu Jan 16 13:56:05 2020","The main experiment item","yes","liesli.osexp","/Users/olgavorontsova/Downloads","no","mono","no","18","no","white","no","yes","768","16","2","/Users/olgavorontsova/Downloads/subject-38.csv","IMP","PL","PST","20","Kafkaesque Koffka","3.2.8","0","1","space","1","NA","964","64224","964","NA","2","Они интересовались, если журналисты написали про выборы.","1024","2","48000","-16","experiment","PRF","PL","PST","svo","38","even","156185","NA","68762","4515","156197","NA","4536","NA","37056","160627","4536","160547","159568","156198","60111","159568","NA","NA","37056","New experiment","0","142443","22","yes","1024","7"
"undefined","undefined","6318.04347826","6318.04347826","black","legacy","9distr","0","li","distr","uniform","undefined","undefined","undefined","20","0","0","0","20","NA","0","0","0","20","2","20","20","20","1","20","0","0","0","Thu Jan 16 13:56:05 2020","The main experiment item","yes","liesli.osexp","/Users/olgavorontsova/Downloads","no","mono","no","18","no","white","no","yes","768","17","2","/Users/olgavorontsova/Downloads/subject-38.csv","PRF","SG","FUT","49","Kafkaesque Koffka","3.2.8","0","2","space","2","NA","2872","64224","2872","NA","2","Маша позвонит другу, если он будет дома.","1024","2","48000","-16","experiment","IMP","SG","FUT","svo","38","even","161067","NA","68762","4515","161081","NA","4536","NA","37056","166875","4536","166795","163906","161081","60111","163906","NA","NA","37056","New experiment","0","145315","23","yes","1024","7"
"undefined","undefined","6158.54166667","6158.54166667","black","legacy","13li","0","li","li","uniform","undefined","undefined","undefined","21","0","0","0","21","NA","0","0","0","21","2","21","21","21","1","21","0","0","0","Thu Jan 16 13:56:05 2020","The main experiment item","yes","liesli.osexp","/Users/olgavorontsova/Downloads","no","mono","no","18","no","white","no","yes","768","18","2","/Users/olgavorontsova/Downloads/subject-38.csv","PRF","SG","PST","25","Kafkaesque Koffka","3.2.8","0","5","space","5","NA","2490","64224","2490","NA","2","Витя забыл, будет ли во вторник игра.","1024","2","48000","-16","experiment","IMP","SG","FUT","vo","38","even","167269","NA","68762","4515","167282","NA","4536","NA","37056","172184","4536","172104","169599","167282","60111","169598","NA","NA","37056","New experiment","0","147805","24","yes","1024","7"
"undefined","undefined","5917.16","5917.16","black","legacy","7esli","0","li","esli","uniform","undefined","undefined","undefined","22","0","0","0","22","NA","0","0","0","22","2","22","22","22","1","22","0","0","0","Thu Jan 16 13:56:05 2020","The main experiment item","yes","liesli.osexp","/Users/olgavorontsova/Downloads","no","mono","no","18","no","white","no","yes","768","19","2","/Users/olgavorontsova/Downloads/subject-38.csv","PRF","PL","PST","14","Kafkaesque Koffka","3.2.8","0","1","space","1","NA","124","64224","124","NA","2","Братья не сказали, если они покормили собаку.","1024","2","48000","-16","experiment","PRF","PL","PST","svo","38","even","172640","NA","68762","4515","172653","NA","4536","NA","37056","175962","4536","175881","175741","172653","60111","175740","NA","NA","37056","New experiment","0","147929","25","yes","1024","7"
"undefined","undefined","5716.69230769","5716.69230769","black","legacy","7distr","0","li","distr","uniform","undefined","undefined","undefined","23","0","0","0","23","NA","0","0","0","23","2","23","23","23","1","23","0","0","0","Thu Jan 16 13:56:05 2020","The main experiment item","yes","liesli.osexp","/Users/olgavorontsova/Downloads","no","mono","no","18","no","white","no","yes","768","20","2","/Users/olgavorontsova/Downloads/subject-38.csv","PRF","SG","FUT","47","Kafkaesque Koffka","3.2.8","0","5","space","5","NA","705","64224","705","NA","2","Рита останется дома, если сильно заболеет.","1024","2","48000","-16","experiment","PRF","SG","FUT","(s)ov","38","even","176416","NA","68762","4515","176429","NA","4536","NA","37056","180188","4536","180108","179385","176429","60111","179385","NA","NA","37056","New experiment","0","148634","26","yes","1024","6"
"undefined","undefined","5539.77777778","5539.77777778","black","legacy","16li","0","li","li","uniform","undefined","undefined","undefined","24","0","0","0","24","NA","0","0","0","24","2","24","24","24","1","24","0","0","0","Thu Jan 16 13:56:05 2020","The main experiment item","yes","liesli.osexp","/Users/olgavorontsova/Downloads","no","mono","no","18","no","white","no","yes","768","21","2","/Users/olgavorontsova/Downloads/subject-38.csv","IMP","PL","PST","31","Kafkaesque Koffka","3.2.8","0","5","space","5","NA","940","64224","940","NA","2","Родители сомневались, помыл ли Даня посуду.","1024","2","48000","-16","experiment","PRF","SG","PST","vso","38","even","180663","NA","68762","4515","180683","NA","4536","NA","37056","184599","4536","184519","183565","180683","60111","183565","NA","NA","37056","New experiment","0","149574","27","yes","1024","6"
"undefined","undefined","5401.75","5401.75","black","legacy","5distr","0","li","distr","uniform","undefined","undefined","undefined","25","0","0","0","25","NA","0","0","0","25","2","25","25","25","1","25","0","0","0","Thu Jan 16 13:56:05 2020","The main experiment item","yes","liesli.osexp","/Users/olgavorontsova/Downloads","no","mono","no","18","no","white","no","yes","768","22","2","/Users/olgavorontsova/Downloads/subject-38.csv","PRF","SG","FUT","45","Kafkaesque Koffka","3.2.8","0","5","space","5","NA","1675","64224","1675","NA","2","Саша доест яблоко, если оно будет сладким.","1024","2","48000","-16","experiment","IMP","SG","FUT","sv","38","even","185046","NA","68762","4515","185059","NA","4536","NA","37056","189817","4536","189737","188046","185059","60111","188046","NA","NA","37056","New experiment","0","151249","28","yes","1024","7"
"undefined","undefined","5244.62068966","5244.62068966","black","legacy","14li","0","li","li","uniform","undefined","undefined","undefined","26","0","0","0","26","NA","0","0","0","26","2","26","26","26","1","26","0","0","0","Thu Jan 16 13:56:05 2020","The main experiment item","yes","liesli.osexp","/Users/olgavorontsova/Downloads","no","mono","no","18","no","white","no","yes","768","23","2","/Users/olgavorontsova/Downloads/subject-38.csv","IMP","PL","PST","27","Kafkaesque Koffka","3.2.8","0","5","space","5","NA","845","64224","845","NA","2","Мальчики не знали, принесли ли друзья торт.","1024","2","48000","-16","experiment","PRF","PL","PST","vso","38","even","190245","NA","68762","4515","190258","NA","4536","NA","37056","193957","4536","193877","193014","190258","60111","193014","NA","NA","37056","New experiment","0","152094","29","yes","1024","7"
"undefined","undefined","5288.8","5288.8","black","legacy","2distr","0","li","distr","uniform","undefined","undefined","undefined","27","0","0","0","27","NA","0","0","0","27","2","27","27","27","1","27","0","0","0","Thu Jan 16 13:56:05 2020","The main experiment item","yes","liesli.osexp","/Users/olgavorontsova/Downloads","no","mono","no","18","no","white","no","yes","768","24","2","/Users/olgavorontsova/Downloads/subject-38.csv","PRF","SG","FUT","42","Kafkaesque Koffka","3.2.8","0","2","space","2","NA","6570","64224","6570","NA","2","Вася купит картошку, если придёт зарплата.","1024","2","48000","-16","experiment","IMP","SG","FUT","svo","38","even","194392","NA","68762","4515","194405","NA","4536","NA","37056","203954","4536","203874","197287","194405","60111","197287","NA","NA","37056","New experiment","0","158664","30","yes","1024","#REF!"
"undefined","undefined","5147.74193548","5147.74193548","black","legacy","4esli","0","li","esli","uniform","undefined","undefined","undefined","28","0","0","0","28","NA","0","0","0","28","2","28","28","28","1","28","0","0","0","Thu Jan 16 13:56:05 2020","The main experiment item","yes","liesli.osexp","/Users/olgavorontsova/Downloads","no","mono","no","18","no","white","no","yes","768","25","2","/Users/olgavorontsova/Downloads/subject-38.csv","PRF","SG","PST","8","Kafkaesque Koffka","3.2.8","0","1","space","1","NA","916","64224","916","NA","2","Петя спросил, если Вася смотрел кино.","1024","2","48000","-16","experiment","IMP","SG","PST","svo","38","even","204383","NA","68762","4515","204396","NA","4536","NA","37056","208051","4536","207971","207039","204396","60111","207038","NA","NA","37056","New experiment","0","159580","31","yes","1024","6"
"undefined","undefined","5024.6875","5024.6875","black","legacy","17li","0","li","li","uniform","undefined","undefined","undefined","29","0","0","0","29","NA","0","0","0","29","2","29","29","29","1","29","0","0","0","Thu Jan 16 13:56:05 2020","The main experiment item","yes","liesli.osexp","/Users/olgavorontsova/Downloads","no","mono","no","18","no","white","no","yes","768","26","2","/Users/olgavorontsova/Downloads/subject-38.csv","PRF","SG","PST","33","Kafkaesque Koffka","3.2.8","0","5","space","5","NA","1210","64224","1210","NA","2","Вася не решил, купит ли он газету.","1024","2","48000","-16","experiment","PRF","SG","FUT","vso","38","even","208448","NA","68762","4515","208461","NA","4536","NA","37056","212093","4536","212013","210790","208461","60111","210790","NA","NA","37056","New experiment","0","160790","32","yes","1024","7"
